[
  {
    "active": true,
    "id": "21d4f0ff0f61cb105e2954e7a5a44fc7",
    "identifier": [
      {
        "value": "GOOD HEALTH HOSPITAL"
      }
    ],
    "name": "Unknown",
    "resourceType": "Organization"
  },
  {
    "id": "a6072fa6d97b13d9970b5a299df64233",
    "identifier": [
      {
        "value": "ADT1"
      }
    ],
    "resourceType": "Device",
    "type": {
      "coding": [
        {
          "code": "unknown"
        }
      ]
    }
  },
  {
    "activity": {
      "coding": [
        {
          "code": "message - ADT^A01^ADT_A01"
        }
      ]
    },
    "agent": [
      {
        "type": {
          "coding": [
            {
              "code": "author",
              "system": "http://terminology.hl7.org/CodeSystem/provenance-participant-type"
            }
          ]
        },
        "who": {
          "reference": "Organization/21d4f0ff0f61cb105e2954e7a5a44fc7"
        }
      }
    ],
    "entity": [
      {
        "role": "source",
        "what": {
          "reference": "Device/a6072fa6d97b13d9970b5a299df64233"
        }
      }
    ],
    "recorded": "1988-08-18T11:26:00.000+00:00",
    "resourceType": "Provenance"
  }
]
