[
  {
    "active": true,
    "id": "8c1745f5bfc0112829e4f5972f928713",
    "identifier": [
      {
        "value": "SIMULATOR MRN"
      }
    ],
    "name": "Unknown",
    "resourceType": "Organization"
  },
  {
    "active": true,
    "id": "c179038a76e4d76e774a7307ba03ff33",
    "identifier": [
      {
        "value": "NHSNBR"
      }
    ],
    "name": "Unknown",
    "resourceType": "Organization"
  },
  {
    "active": true,
    "id": "a6d20bab27acd6a1e0a1091490420827",
    "identifier": [
      {
        "value": "SIMULATOR4 MRN4"
      }
    ],
    "name": "Unknown",
    "resourceType": "Organization"
  },
  {
    "active": true,
    "id": "018a6ca5846ffa61bb665fdb8cdd3572",
    "identifier": [
      {
        "type": {
          "coding": [
            {
              "code": "CLN",
              "system": "http://terminology.hl7.org/CodeSystem/v2-0203"
            }
          ]
        },
        "value": "Y2112"
      }
    ],
    "name": "YIEWSLEY FAMILY PRACTICE",
    "resourceType": "Organization"
  },
  {
    "id": "be23e86040afcfb76dbdb7a761c43686",
    "identifier": [
      {
        "system": "unknown",
        "type": {
          "coding": [
            {
              "code": "CC"
            }
          ]
        },
        "value": "C184726198"
      }
    ],
    "name": [
      {
        "family": "Connell",
        "given": [
          "Alistair",
          "Alex"
        ],
        "period": {
          "end": "2018-07-25T14:01:56+00:00",
          "start": "2018-07-25T14:01:56+00:00"
        },
        "prefix": [
          "Dr"
        ],
        "suffix": [
          "Sr",
          "MD",
          "MSc."
        ],
        "use": "official"
      }
    ],
    "resourceType": "Practitioner"
  },
  {
    "_birthDate": {
      "extension": [
        {
          "url": "http://hl7.org/fhir/StructureDefinition/patient-birthTime",
          "valueDateTime": "1994-06-15T01:00:00+00:00"
        }
      ]
    },
    "active": true,
    "address": [
      {
        "city": "Croydon",
        "country": "GBR",
        "line": [
          "28 Dahlia House",
          "Plough Avenue",
          "Some Guy"
        ],
        "period": {
          "end": "2018-07-25T14:01:56+00:00",
          "start": "2018-07-25T14:01:56+00:00"
        },
        "postalCode": "SV20 3BC",
        "state": "N/A"
      }
    ],
    "birthDate": "1994-06-15",
    "communication": [
      {
        "language": {
          "coding": [
            {
              "code": "ENG-UK"
            }
          ]
        },
        "preferred": true
      }
    ],
    "deceasedDateTime": "2018-07-25T14:01:56+00:00",
    "extension": [
      {
        "url": "http://hl7.org/fhir/StructureDefinition/patient-mothersMaidenName",
        "valueString": "Mo-Jane Mo-Doe"
      },
      {
        "url": "http://hl7.org/fhir/StructureDefinition/patient-religion",
        "valueCodeableConcept": {
          "coding": [
            {
              "code": "Christian"
            }
          ]
        }
      },
      {
        "extension": [
          {
            "url": "text",
            "valueString": "White - British"
          },
          {
            "url": "ombCategory",
            "valueCoding": {
              "code": "A",
              "display": "White - British"
            }
          }
        ],
        "url": "http://hl7.org/fhir/us/core/StructureDefinition/us-core-ethnicity"
      },
      {
        "url": "http://hl7.org/fhir/StructureDefinition/patient-birthPlace",
        "valueAddress": {
          "text": "London"
        }
      },
      {
        "extension": [
          {
            "url": "code",
            "valueCodeableConcept": {
              "coding": [
                {
                  "code": "GBR"
                }
              ]
            }
          }
        ],
        "url": "http://hl7.org/fhir/StructureDefinition/patient-citizenship"
      },
      {
        "extension": [
          {
            "url": "code",
            "valueCodeableConcept": {
              "coding": [
                {
                  "code": "British"
                }
              ]
            }
          }
        ],
        "url": "http://hl7.org/fhir/StructureDefinition/patient-nationality"
      },
      {
        "extension": [
          {
            "url": "species",
            "valueCodeableConcept": {
              "coding": [
                {
                  "code": "Human"
                }
              ]
            }
          },
          {
            "url": "breed",
            "valueCodeableConcept": {
              "coding": [
                {
                  "code": "female"
                }
              ]
            }
          }
        ],
        "url": "http://hl7.org/fhir/StructureDefinition/patient-animal"
      },
      {
        "extension": [
          {
            "url": "code",
            "valueCodeableConcept": {
              "coding": [
                {
                  "code": "North-GBR"
                }
              ]
            }
          }
        ],
        "url": "http://hl7.org/fhir/StructureDefinition/patient-citizenship"
      },
      {
        "url": "http://hl7.org/fhir/StructureDefinition/patient-disability",
        "valueCodeableConcept": {
          "coding": [
            {
              "code": "Disable"
            }
          ]
        }
      },
      {
        "url": "http://hl7.org/fhir/StructureDefinition/patient-congregation",
        "valueString": "Church"
      }
    ],
    "gender": "female",
    "generalPractitioner": [
      {
        "reference": "Organization/018a6ca5846ffa61bb665fdb8cdd3572"
      },
      {
        "reference": "Practitioner/be23e86040afcfb76dbdb7a761c43686"
      }
    ],
    "identifier": [
      {
        "assigner": {
          "reference": "Organization/8c1745f5bfc0112829e4f5972f928713"
        },
        "system": "unknown",
        "type": {
          "coding": [
            {
              "code": "MRN",
              "system": "http://terminology.hl7.org/CodeSystem/v2-0203"
            }
          ]
        },
        "value": "1419055458"
      },
      {
        "assigner": {
          "reference": "Organization/8c1745f5bfc0112829e4f5972f928713"
        },
        "system": "unknown",
        "type": {
          "coding": [
            {
              "code": "MRN",
              "system": "http://terminology.hl7.org/CodeSystem/v2-0203"
            }
          ]
        },
        "value": "1419055458"
      },
      {
        "assigner": {
          "reference": "Organization/c179038a76e4d76e774a7307ba03ff33"
        },
        "system": "unknown",
        "type": {
          "coding": [
            {
              "code": "NHSNMBR",
              "system": "http://terminology.hl7.org/CodeSystem/v2-0203"
            }
          ]
        },
        "value": "3870146052"
      },
      {
        "assigner": {
          "reference": "Organization/a6d20bab27acd6a1e0a1091490420827"
        },
        "system": "unknown",
        "type": {
          "coding": [
            {
              "code": "MRN4",
              "system": "http://terminology.hl7.org/CodeSystem/v2-0203"
            }
          ]
        },
        "value": "1419055459"
      },
      {
        "system": "http://hl7.org/fhir/sid/us-ssn",
        "type": {
          "coding": [
            {
              "code": "SB",
              "system": "http://terminology.hl7.org/CodeSystem/v2-0203"
            }
          ]
        },
        "value": "SSN-48383"
      },
      {
        "system": "unknown",
        "type": {
          "coding": [
            {
              "code": "DL",
              "system": "http://terminology.hl7.org/CodeSystem/v2-0203"
            }
          ]
        },
        "value": "43211234"
      }
    ],
    "maritalStatus": {
      "coding": [
        {
          "code": "unknown",
          "display": "Unknown",
          "system": "http://terminology.hl7.org/CodeSystem/v3-MaritalStatus",
          "version": "v1"
        }
      ]
    },
    "meta": {
      "lastUpdated": "2018-07-25T14:01:56+00:00"
    },
    "multipleBirthInteger": 2,
    "name": [
      {
        "family": "Doe",
        "given": [
          "Jane",
          "Janny"
        ],
        "period": {
          "end": "2018-07-25T14:01:56+00:00",
          "start": "2018-07-25T14:01:56+00:00"
        },
        "prefix": [
          "Miss"
        ],
        "suffix": [
          "Jr",
          "PhD",
          "Eng."
        ],
        "use": "anonymous"
      },
      {
        "family": "Al-Doe",
        "given": [
          "Al-Jane",
          "Al-Janny"
        ],
        "period": {
          "end": "2018-07-25T14:01:56+00:00",
          "start": "2018-07-25T14:01:56+00:00"
        },
        "prefix": [
          "Al-Miss"
        ],
        "suffix": [
          "Al-Jr",
          "Al-PhD",
          "Al-Eng."
        ],
        "use": "anonymous"
      }
    ],
    "resourceType": "Patient",
    "telecom": [
      {
        "system": {
          "extension": [
            {
              "url": "http://hl7.org/fhir/StructureDefinition/data-absent-reason",
              "valueCode": "unknown"
            }
          ]
        },
        "use": "home",
        "value": "020 0921 5742"
      },
      {
        "system": {
          "extension": [
            {
              "url": "http://hl7.org/fhir/StructureDefinition/data-absent-reason",
              "valueCode": "unknown"
            }
          ]
        },
        "use": "work",
        "value": "020 0921 5748"
      },
      {
        "system": {
          "extension": [
            {
              "url": "http://hl7.org/fhir/StructureDefinition/data-absent-reason",
              "valueCode": "unknown"
            }
          ]
        },
        "use": "home",
        "value": "020 0921 5700"
      }
    ]
  }
]
