[
  {
    "active": true,
    "address": [
      {
        "country": "44"
      }
    ],
    "id": "a9aaeb16d767f8f236742a49b93f4e6f",
    "identifier": [
      {
        "value": "RAL"
      },
      {
        "system": "urn:ietf:rfc:3986",
        "type": {
          "coding": [
            {
              "code": "UUID",
              "system": "http://terminology.hl7.org/CodeSystem/v2-0301"
            }
          ]
        },
        "value": "4.2-two"
      }
    ],
    "name": "Unknown",
    "resourceType": "Organization"
  },
  {
    "active": true,
    "id": "cbc7e82f83f0e3f102d78d3ffc46f65d",
    "identifier": [
      {
        "type": {
          "coding": [
            {
              "code": "DCode",
              "system": "http://terminology.hl7.org/CodeSystem/v2-0203"
            }
          ]
        },
        "value": "6010"
      }
    ],
    "name": "Reciever - YIEWSLEY FAMILY PRACTICE",
    "resourceType": "Organization"
  },
  {
    "active": true,
    "id": "d9ae158dede9d7f233737872fd74760b",
    "identifier": [
      {
        "type": {
          "coding": [
            {
              "code": "RCode",
              "system": "http://terminology.hl7.org/CodeSystem/v2-0203"
            }
          ]
        },
        "value": "6010"
      }
    ],
    "name": "Resposible - YIEWSLEY FAMILY PRACTICE",
    "resourceType": "Organization"
  },
  {
    "destination": [
      {
        "endpoint": {
          "extension": [
            {
              "url": "http://hl7.org/fhir/R4/extension-data-absent-reason.html",
              "valueCode": "unknown"
            }
          ]
        },
        "name": "STREAMS",
        "receiver": {
          "reference": "Organization/cbc7e82f83f0e3f102d78d3ffc46f65d"
        }
      }
    ],
    "eventCoding": {
      "code": "A01",
      "display": "ADT^A01^9.3-DEF",
      "system": "http://terminology.hl7.org/CodeSystem/v2-0003"
    },
    "id": "fe31fdca01804bd2115d9cdb5c8ace51",
    "language": "ENG",
    "meta": {
      "security": [
        {
          "code": "8-Security"
        }
      ],
      "tag": [
        {
          "code": "T",
          "system": "http://terminology.hl7.org/CodeSystem/v2-0103"
        },
        {
          "code": "11.2-processing",
          "system": "http://terminology.hl7.org/CodeSystem/v2-0207"
        }
      ]
    },
    "resourceType": "MessageHeader",
    "responsible": {
      "reference": "Organization/d9ae158dede9d7f233737872fd74760b"
    },
    "sender": {
      "reference": "Organization/a9aaeb16d767f8f236742a49b93f4e6f"
    },
    "source": {
      "endpoint": "urn:uri:3.2-two"
    }
  },
  {
    "active": true,
    "id": "8c1745f5bfc0112829e4f5972f928713",
    "identifier": [
      {
        "value": "SIMULATOR MRN"
      }
    ],
    "name": "Unknown",
    "resourceType": "Organization"
  },
  {
    "active": true,
    "id": "8c1745f5bfc0112829e4f5972f928713",
    "identifier": [
      {
        "value": "SIMULATOR MRN"
      }
    ],
    "name": "Unknown",
    "resourceType": "Organization"
  },
  {
    "active": true,
    "id": "c179038a76e4d76e774a7307ba03ff33",
    "identifier": [
      {
        "value": "NHSNBR"
      }
    ],
    "name": "Unknown",
    "resourceType": "Organization"
  },
  {
    "active": true,
    "id": "a6d20bab27acd6a1e0a1091490420827",
    "identifier": [
      {
        "value": "SIMULATOR4 MRN4"
      }
    ],
    "name": "Unknown",
    "resourceType": "Organization"
  },
  {
    "active": true,
    "id": "018a6ca5846ffa61bb665fdb8cdd3572",
    "identifier": [
      {
        "type": {
          "coding": [
            {
              "code": "CLN",
              "system": "http://terminology.hl7.org/CodeSystem/v2-0203"
            }
          ]
        },
        "value": "Y2112"
      }
    ],
    "name": "YIEWSLEY FAMILY PRACTICE",
    "resourceType": "Organization"
  },
  {
    "id": "be23e86040afcfb76dbdb7a761c43686",
    "identifier": [
      {
        "system": "unknown",
        "type": {
          "coding": [
            {
              "code": "CC"
            }
          ]
        },
        "value": "C184726198"
      }
    ],
    "name": [
      {
        "family": "Connell",
        "given": [
          "Alistair",
          "Alex"
        ],
        "period": {
          "end": "2018-07-25T14:01:56+00:00",
          "start": "2018-07-25T14:01:56+00:00"
        },
        "prefix": [
          "Dr"
        ],
        "suffix": [
          "Sr",
          "MD",
          "MSc."
        ],
        "use": "official"
      }
    ],
    "resourceType": "Practitioner"
  },
  {
    "_birthDate": {
      "extension": [
        {
          "url": "http://hl7.org/fhir/StructureDefinition/patient-birthTime",
          "valueDateTime": "1994-06-15T01:00:00+00:00"
        }
      ]
    },
    "active": true,
    "address": [
      {
        "city": "Croydon",
        "country": "GBR",
        "line": [
          "28 Dahlia House",
          "Plough Avenue",
          "Some Guy"
        ],
        "period": {
          "end": "2018-07-25T14:01:56+00:00",
          "start": "2018-07-25T14:01:56+00:00"
        },
        "postalCode": "SV20 3BC",
        "state": "N/A"
      }
    ],
    "birthDate": "1994-06-15",
    "communication": [
      {
        "language": {
          "coding": [
            {
              "code": "ENG-UK"
            }
          ]
        },
        "preferred": true
      }
    ],
    "deceasedDateTime": "2018-07-25T14:01:56+00:00",
    "extension": [
      {
        "url": "http://hl7.org/fhir/StructureDefinition/patient-mothersMaidenName",
        "valueString": "Mo-Jane Mo-Doe"
      },
      {
        "url": "http://hl7.org/fhir/StructureDefinition/patient-religion",
        "valueCodeableConcept": {
          "coding": [
            {
              "code": "Christian"
            }
          ]
        }
      },
      {
        "extension": [
          {
            "url": "text",
            "valueString": "White - British"
          },
          {
            "url": "ombCategory",
            "valueCoding": {
              "code": "A",
              "display": "White - British"
            }
          }
        ],
        "url": "http://hl7.org/fhir/us/core/StructureDefinition/us-core-ethnicity"
      },
      {
        "url": "http://hl7.org/fhir/StructureDefinition/patient-birthPlace",
        "valueAddress": {
          "text": "London"
        }
      },
      {
        "extension": [
          {
            "url": "code",
            "valueCodeableConcept": {
              "coding": [
                {
                  "code": "GBR"
                }
              ]
            }
          }
        ],
        "url": "http://hl7.org/fhir/StructureDefinition/patient-citizenship"
      },
      {
        "extension": [
          {
            "url": "code",
            "valueCodeableConcept": {
              "coding": [
                {
                  "code": "British"
                }
              ]
            }
          }
        ],
        "url": "http://hl7.org/fhir/StructureDefinition/patient-nationality"
      },
      {
        "extension": [
          {
            "url": "species",
            "valueCodeableConcept": {
              "coding": [
                {
                  "code": "Human"
                }
              ]
            }
          },
          {
            "url": "breed",
            "valueCodeableConcept": {
              "coding": [
                {
                  "code": "female"
                }
              ]
            }
          }
        ],
        "url": "http://hl7.org/fhir/StructureDefinition/patient-animal"
      },
      {
        "extension": [
          {
            "url": "code",
            "valueCodeableConcept": {
              "coding": [
                {
                  "code": "North-GBR"
                }
              ]
            }
          }
        ],
        "url": "http://hl7.org/fhir/StructureDefinition/patient-citizenship"
      },
      {
        "url": "http://hl7.org/fhir/StructureDefinition/patient-disability",
        "valueCodeableConcept": {
          "coding": [
            {
              "code": "Disable"
            }
          ]
        }
      },
      {
        "url": "http://hl7.org/fhir/StructureDefinition/patient-congregation",
        "valueString": "Church"
      }
    ],
    "gender": "female",
    "generalPractitioner": [
      {
        "reference": "Organization/018a6ca5846ffa61bb665fdb8cdd3572"
      },
      {
        "reference": "Practitioner/be23e86040afcfb76dbdb7a761c43686"
      }
    ],
    "id": "c62fd5cd919a239def3d5d89aea8638c",
    "identifier": [
      {
        "assigner": {
          "reference": "Organization/8c1745f5bfc0112829e4f5972f928713"
        },
        "system": "unknown",
        "type": {
          "coding": [
            {
              "code": "MRN",
              "system": "http://terminology.hl7.org/CodeSystem/v2-0203"
            }
          ]
        },
        "value": "1419055458"
      },
      {
        "assigner": {
          "reference": "Organization/8c1745f5bfc0112829e4f5972f928713"
        },
        "system": "unknown",
        "type": {
          "coding": [
            {
              "code": "MRN",
              "system": "http://terminology.hl7.org/CodeSystem/v2-0203"
            }
          ]
        },
        "value": "1419055458"
      },
      {
        "assigner": {
          "reference": "Organization/c179038a76e4d76e774a7307ba03ff33"
        },
        "system": "unknown",
        "type": {
          "coding": [
            {
              "code": "NHSNMBR",
              "system": "http://terminology.hl7.org/CodeSystem/v2-0203"
            }
          ]
        },
        "value": "3870146052"
      },
      {
        "assigner": {
          "reference": "Organization/a6d20bab27acd6a1e0a1091490420827"
        },
        "system": "unknown",
        "type": {
          "coding": [
            {
              "code": "MRN4",
              "system": "http://terminology.hl7.org/CodeSystem/v2-0203"
            }
          ]
        },
        "value": "1419055459"
      },
      {
        "system": "http://hl7.org/fhir/sid/us-ssn",
        "type": {
          "coding": [
            {
              "code": "SB",
              "system": "http://terminology.hl7.org/CodeSystem/v2-0203"
            }
          ]
        },
        "value": "SSN-48383"
      },
      {
        "system": "unknown",
        "type": {
          "coding": [
            {
              "code": "DL",
              "system": "http://terminology.hl7.org/CodeSystem/v2-0203"
            }
          ]
        },
        "value": "43211234"
      }
    ],
    "maritalStatus": {
      "coding": [
        {
          "code": "unknown",
          "display": "Unknown",
          "system": "http://terminology.hl7.org/CodeSystem/v3-MaritalStatus",
          "version": "v1"
        }
      ]
    },
    "meta": {
      "lastUpdated": "2018-07-25T14:01:56+00:00"
    },
    "multipleBirthInteger": 2,
    "name": [
      {
        "family": "Doe",
        "given": [
          "Jane",
          "Janny"
        ],
        "period": {
          "end": "2018-07-25T14:01:56+00:00",
          "start": "2018-07-25T14:01:56+00:00"
        },
        "prefix": [
          "Miss"
        ],
        "suffix": [
          "Jr",
          "PhD",
          "Eng."
        ],
        "use": "anonymous"
      },
      {
        "family": "Al-Doe",
        "given": [
          "Al-Jane",
          "Al-Janny"
        ],
        "period": {
          "end": "2018-07-25T14:01:56+00:00",
          "start": "2018-07-25T14:01:56+00:00"
        },
        "prefix": [
          "Al-Miss"
        ],
        "suffix": [
          "Al-Jr",
          "Al-PhD",
          "Al-Eng."
        ],
        "use": "anonymous"
      }
    ],
    "resourceType": "Patient",
    "telecom": [
      {
        "system": {
          "extension": [
            {
              "url": "http://hl7.org/fhir/StructureDefinition/data-absent-reason",
              "valueCode": "unknown"
            }
          ]
        },
        "use": "home",
        "value": "020 0921 5742"
      },
      {
        "system": {
          "extension": [
            {
              "url": "http://hl7.org/fhir/StructureDefinition/data-absent-reason",
              "valueCode": "unknown"
            }
          ]
        },
        "use": "work",
        "value": "020 0921 5748"
      },
      {
        "system": {
          "extension": [
            {
              "url": "http://hl7.org/fhir/StructureDefinition/data-absent-reason",
              "valueCode": "unknown"
            }
          ]
        },
        "use": "home",
        "value": "020 0921 5700"
      }
    ]
  },
  {
    "active": true,
    "id": "3073166545f423ab0840f16e5c49f844",
    "identifier": [
      {
        "value": "RAL"
      },
      {
        "system": "urn:ietf:rfc:3986",
        "type": {
          "coding": [
            {
              "code": "UUID",
              "system": "http://terminology.hl7.org/CodeSystem/v2-0301"
            }
          ]
        },
        "value": "4.2-two"
      }
    ],
    "name": "Unknown",
    "resourceType": "Organization"
  },
  {
    "id": "38ebfaebad1c0ae60c19147e513e05b6",
    "identifier": [
      {
        "value": "CERNER"
      }
    ],
    "patient": {
      "reference": "Patient/c62fd5cd919a239def3d5d89aea8638c"
    },
    "resourceType": "Device",
    "type": {
      "coding": [
        {
          "code": "unknown"
        }
      ]
    }
  },
  {
    "id": "10b9dde6c7d110618af97beae5f9b97d",
    "identifier": [
      {
        "system": "unknown",
        "type": {
          "coding": [
            {
              "code": "AN",
              "system": "https://terminology.hl7.org/3.0.0/CodeSystem-v2-0203"
            }
          ],
          "text": "Account Number"
        },
        "value": "1419055678"
      }
    ],
    "resourceType": "Account",
    "status": "active",
    "subject": [
      {
        "reference": "Patient/c62fd5cd919a239def3d5d89aea8638c"
      }
    ]
  },
  {
    "id": "4e3ce31e9de0fa39b8e2c656e767bdf0",
    "identifier": [
      {
        "system": "unknown",
        "type": {
          "coding": [
            {
              "code": "ORGDR"
            }
          ]
        },
        "value": "C3557206"
      }
    ],
    "name": [
      {
        "family": "Prout",
        "given": [
          "J"
        ],
        "prefix": [
          "Dr"
        ],
        "use": "anonymous"
      }
    ],
    "resourceType": "Practitioner"
  },
  {
    "id": "4e3ce31e9de0fa39b8e2c656e767bdf0",
    "identifier": [
      {
        "system": "unknown",
        "type": {
          "coding": [
            {
              "code": "ORGDR"
            }
          ]
        },
        "value": "C3557206"
      }
    ],
    "name": [
      {
        "family": "Prout",
        "given": [
          "J"
        ],
        "prefix": [
          "Dr"
        ],
        "use": "anonymous"
      }
    ],
    "resourceType": "Practitioner"
  },
  {
    "asserter": {
      "reference": "Practitioner/4e3ce31e9de0fa39b8e2c656e767bdf0"
    },
    "category": [
      {
        "coding": [
          {
            "code": "unknown"
          }
        ]
      }
    ],
    "code": {
      "coding": [
        {
          "code": "R07.1",
          "display": "Chest pain on breathing"
        }
      ],
      "text": "Chest pain on breathing"
    },
    "extension": [
      {
        "url": "http://hl7.org/fhir/StructureDefinition/condition-assertedDate",
        "valueDateTime": "2020-03-09T14:01:56+00:00"
      }
    ],
    "id": "56c4d0daf8d6edfb673e0ed42727395a",
    "identifier": [
      {
        "value": "EI29202"
      }
    ],
    "onsetDateTime": "2019-03-09T14:01:56+00:00",
    "recordedDate": "2020-03-09T14:01:56+00:00",
    "resourceType": "Condition",
    "subject": {
      "reference": "Patient/c62fd5cd919a239def3d5d89aea8638c"
    },
    "verificationStatus": {
      "coding": [
        {
          "code": "entered-in-error",
          "system": "http://terminology.hl7.org/CodeSystem/condition-ver-status"
        }
      ]
    }
  },
  {
    "asserter": {
      "reference": "Practitioner/4e3ce31e9de0fa39b8e2c656e767bdf0"
    },
    "category": [
      {
        "coding": [
          {
            "code": "unknown"
          }
        ]
      }
    ],
    "code": {
      "coding": [
        {
          "code": "R07.2",
          "display": "Chest pain on breathing2"
        }
      ],
      "text": "Chest pain on breathing2"
    },
    "extension": [
      {
        "url": "http://hl7.org/fhir/StructureDefinition/condition-assertedDate",
        "valueDateTime": "2019-03-09T14:01:56+00:00"
      }
    ],
    "id": "76d84984b8042e0b35b4c37026c23d03",
    "identifier": [
      {
        "value": "EI29204"
      }
    ],
    "onsetDateTime": "2019-03-09T14:01:56+00:00",
    "recordedDate": "2019-03-09T14:01:56+00:00",
    "resourceType": "Condition",
    "subject": {
      "reference": "Patient/c62fd5cd919a239def3d5d89aea8638c"
    },
    "verificationStatus": {
      "coding": [
        {
          "code": "entered-in-error",
          "system": "http://terminology.hl7.org/CodeSystem/condition-ver-status"
        }
      ]
    }
  },
  {
    "id": "0972e79bd4a7b989b3d534e377e21fc9",
    "mode": "instance",
    "name": "Simulated Hospital",
    "physicalType": {
      "coding": [
        {
          "code": "si",
          "system": "http://terminology.hl7.org/CodeSystem/location-physical-type"
        }
      ]
    },
    "resourceType": "Location"
  },
  {
    "id": "8ecba5630bdcc196fb10583f71fae748",
    "mode": "instance",
    "name": "Orthopaedic ward",
    "partOf": {
      "reference": "Location/0972e79bd4a7b989b3d534e377e21fc9"
    },
    "physicalType": {
      "coding": [
        {
          "code": "bu",
          "system": "http://terminology.hl7.org/CodeSystem/location-physical-type"
        }
      ]
    },
    "resourceType": "Location"
  },
  {
    "id": "cde97e218c63d5c26c9ea890b4aef2de",
    "mode": "instance",
    "name": "1",
    "partOf": {
      "reference": "Location/8ecba5630bdcc196fb10583f71fae748"
    },
    "physicalType": {
      "coding": [
        {
          "code": "lvl",
          "system": "http://terminology.hl7.org/CodeSystem/location-physical-type"
        }
      ]
    },
    "resourceType": "Location"
  },
  {
    "id": "e1cb726b63da4f1c41c9b6cd2bfe7e32",
    "mode": "instance",
    "name": "Orthopaedic",
    "partOf": {
      "reference": "Location/8ecba5630bdcc196fb10583f71fae748"
    },
    "physicalType": {
      "coding": [
        {
          "code": "si",
          "system": "http://terminology.hl7.org/CodeSystem/location-physical-type"
        }
      ]
    },
    "resourceType": "Location"
  },
  {
    "id": "e182d215dea8856f839edb3ea77ce6f7",
    "mode": "instance",
    "name": "Bay A",
    "partOf": {
      "reference": "Location/e1cb726b63da4f1c41c9b6cd2bfe7e32"
    },
    "physicalType": {
      "coding": [
        {
          "code": "ro",
          "system": "http://terminology.hl7.org/CodeSystem/location-physical-type"
        }
      ]
    },
    "resourceType": "Location"
  },
  {
    "id": "664e7e14081f55046462898547442a77",
    "mode": "instance",
    "name": "Bed 1",
    "partOf": {
      "reference": "Location/e182d215dea8856f839edb3ea77ce6f7"
    },
    "physicalType": {
      "coding": [
        {
          "code": "bd",
          "system": "http://terminology.hl7.org/CodeSystem/location-physical-type"
        }
      ]
    },
    "resourceType": "Location"
  },
  {
    "id": "345725f32384d94e39246a41b3c227a3",
    "mode": "instance",
    "name": "PV1-6-Simulated Hospital",
    "physicalType": {
      "coding": [
        {
          "code": "si",
          "system": "http://terminology.hl7.org/CodeSystem/location-physical-type"
        }
      ]
    },
    "resourceType": "Location"
  },
  {
    "id": "c4a264184322a07755ec7ef1f396a73f",
    "mode": "instance",
    "name": "PV1-6-Orthopaedic ward",
    "partOf": {
      "reference": "Location/345725f32384d94e39246a41b3c227a3"
    },
    "physicalType": {
      "coding": [
        {
          "code": "bu",
          "system": "http://terminology.hl7.org/CodeSystem/location-physical-type"
        }
      ]
    },
    "resourceType": "Location"
  },
  {
    "id": "544ad2dba93351414915fa60799aff21",
    "mode": "instance",
    "name": "PV1-6-0",
    "partOf": {
      "reference": "Location/c4a264184322a07755ec7ef1f396a73f"
    },
    "physicalType": {
      "coding": [
        {
          "code": "lvl",
          "system": "http://terminology.hl7.org/CodeSystem/location-physical-type"
        }
      ]
    },
    "resourceType": "Location"
  },
  {
    "id": "38a1a8bcfec6a4e62ff70c3dfb9f21c0",
    "mode": "instance",
    "name": "PV1-6-Orthopaedic",
    "partOf": {
      "reference": "Location/c4a264184322a07755ec7ef1f396a73f"
    },
    "physicalType": {
      "coding": [
        {
          "code": "si",
          "system": "http://terminology.hl7.org/CodeSystem/location-physical-type"
        }
      ]
    },
    "resourceType": "Location"
  },
  {
    "id": "0ad9e913a3d4acd2dca8ecb380f1eb8a",
    "mode": "instance",
    "name": "PV1-6-Bay A",
    "partOf": {
      "reference": "Location/38a1a8bcfec6a4e62ff70c3dfb9f21c0"
    },
    "physicalType": {
      "coding": [
        {
          "code": "ro",
          "system": "http://terminology.hl7.org/CodeSystem/location-physical-type"
        }
      ]
    },
    "resourceType": "Location"
  },
  {
    "id": "91e4822472ed55a3fea9bfad0cd79119",
    "mode": "instance",
    "name": "PV1-6-Bed 1",
    "partOf": {
      "reference": "Location/0ad9e913a3d4acd2dca8ecb380f1eb8a"
    },
    "physicalType": {
      "coding": [
        {
          "code": "bd",
          "system": "http://terminology.hl7.org/CodeSystem/location-physical-type"
        }
      ]
    },
    "resourceType": "Location"
  },
  {
    "id": "be23e86040afcfb76dbdb7a761c43686",
    "identifier": [
      {
        "system": "unknown",
        "type": {
          "coding": [
            {
              "code": "CC"
            }
          ]
        },
        "value": "C184726198"
      }
    ],
    "name": [
      {
        "family": "Connell",
        "given": [
          "Alistair",
          "Alex"
        ],
        "period": {
          "end": "2018-07-25T14:01:56+00:00",
          "start": "2018-07-25T14:01:56+00:00"
        },
        "prefix": [
          "Dr"
        ],
        "suffix": [
          "Sr",
          "MD",
          "MSc."
        ],
        "use": "official"
      }
    ],
    "resourceType": "Practitioner"
  },
  {
    "id": "be23e86040afcfb76dbdb7a761c43686",
    "identifier": [
      {
        "system": "unknown",
        "type": {
          "coding": [
            {
              "code": "CC"
            }
          ]
        },
        "value": "C184726198"
      }
    ],
    "name": [
      {
        "family": "Connell",
        "given": [
          "Alistair",
          "Alex"
        ],
        "period": {
          "end": "2018-07-25T14:01:56+00:00",
          "start": "2018-07-25T14:01:56+00:00"
        },
        "prefix": [
          "Dr"
        ],
        "suffix": [
          "Sr",
          "MD",
          "MSc."
        ],
        "use": "official"
      }
    ],
    "resourceType": "Practitioner"
  },
  {
    "id": "be23e86040afcfb76dbdb7a761c43686",
    "identifier": [
      {
        "system": "unknown",
        "type": {
          "coding": [
            {
              "code": "CC"
            }
          ]
        },
        "value": "C184726198"
      }
    ],
    "name": [
      {
        "family": "Connell",
        "given": [
          "Alistair",
          "Alex"
        ],
        "period": {
          "end": "2018-07-25T14:01:56+00:00",
          "start": "2018-07-25T14:01:56+00:00"
        },
        "prefix": [
          "Dr"
        ],
        "suffix": [
          "Sr",
          "MD",
          "MSc."
        ],
        "use": "official"
      }
    ],
    "resourceType": "Practitioner"
  },
  {
    "id": "be23e86040afcfb76dbdb7a761c43686",
    "identifier": [
      {
        "system": "unknown",
        "type": {
          "coding": [
            {
              "code": "CC"
            }
          ]
        },
        "value": "C184726198"
      }
    ],
    "name": [
      {
        "family": "Connell",
        "given": [
          "Alistair",
          "Alex"
        ],
        "period": {
          "end": "2018-07-25T14:01:56+00:00",
          "start": "2018-07-25T14:01:56+00:00"
        },
        "prefix": [
          "Dr"
        ],
        "suffix": [
          "Sr",
          "MD",
          "MSc."
        ],
        "use": "official"
      }
    ],
    "resourceType": "Practitioner"
  },
  {
    "id": "ed718ff6a2618458c7178df767f7051b",
    "identifier": [
      {
        "value": "New Home"
      }
    ],
    "name": "unknown",
    "resourceType": "Location"
  },
  {
    "id": "be23e86040afcfb76dbdb7a761c43686",
    "identifier": [
      {
        "system": "unknown",
        "type": {
          "coding": [
            {
              "code": "CC"
            }
          ]
        },
        "value": "C184726198"
      }
    ],
    "name": [
      {
        "family": "Connell",
        "given": [
          "Alistair",
          "Alex"
        ],
        "period": {
          "end": "2018-07-25T14:01:56+00:00",
          "start": "2018-07-25T14:01:56+00:00"
        },
        "prefix": [
          "Dr"
        ],
        "suffix": [
          "Sr",
          "MD",
          "MSc."
        ],
        "use": "official"
      }
    ],
    "resourceType": "Practitioner"
  },
  {
    "diagnosis": [
      {
        "condition": {
          "reference": "Condition/56c4d0daf8d6edfb673e0ed42727395a"
        },
        "role": {
          "coding": [
            {
              "code": "Working"
            }
          ]
        }
      },
      {
        "condition": {
          "reference": "Condition/76d84984b8042e0b35b4c37026c23d03"
        },
        "role": {
          "coding": [
            {
              "code": "Working2"
            }
          ]
        }
      }
    ],
    "id": "1f17fe9b7456e8ccfef9d1b306b4e252",
    "identifier": [
      {
        "period": {
          "end": "2018-07-25T14:01:56+00:00",
          "start": "2018-07-25T14:01:56+00:00"
        },
        "system": "unknown",
        "type": {
          "coding": [
            {
              "code": "visitid",
              "system": "http://terminology.hl7.org/CodeSystem/v2-0203"
            }
          ]
        },
        "value": "5609582645793883000"
      }
    ],
    "patient": {
      "reference": "Patient/c62fd5cd919a239def3d5d89aea8638c"
    },
    "resourceType": "EpisodeOfCare",
    "status": "finished"
  },
  {
    "class": {
      "code": "U",
      "display": "Unknown",
      "system": "http://terminology.hl7.org/CodeSystem/v2-0004",
      "version": "v1"
    },
    "diagnosis": [
      {
        "condition": {
          "reference": "Condition/56c4d0daf8d6edfb673e0ed42727395a"
        },
        "use": {
          "coding": [
            {
              "code": "Working"
            }
          ]
        }
      },
      {
        "condition": {
          "reference": "Condition/76d84984b8042e0b35b4c37026c23d03"
        },
        "use": {
          "coding": [
            {
              "code": "Working2"
            }
          ]
        }
      }
    ],
    "episodeOfCare": [
      {
        "reference": "EpisodeOfCare/1f17fe9b7456e8ccfef9d1b306b4e252"
      }
    ],
    "hospitalization": {
      "admitSource": {
        "coding": [
          {
            "code": "PV1.14"
          }
        ]
      },
      "destination": {
        "reference": "Location/ed718ff6a2618458c7178df767f7051b"
      },
      "dietPreference": [
        {
          "coding": [
            {
              "code": "Vegi"
            }
          ]
        }
      ],
      "dischargeDisposition": {
        "coding": [
          {
            "code": "Ready to go"
          }
        ]
      },
      "preAdmissionIdentifier": {
        "system": "unknown",
        "value": "PV1-5"
      },
      "reAdmission": {
        "coding": [
          {
            "code": "PV1.13"
          }
        ]
      }
    },
    "id": "fbb2a0cea09de91a3af90bd07e336063",
    "identifier": [
      {
        "period": {
          "end": "2018-07-25T14:01:56+00:00",
          "start": "2018-07-25T14:01:56+00:00"
        },
        "system": "unknown",
        "type": {
          "coding": [
            {
              "code": "VN",
              "system": "http://terminology.hl7.org/CodeSystem/v2-0203"
            }
          ],
          "text": "visit number"
        },
        "value": "5609582645793881888"
      },
      {
        "period": {
          "end": "2018-07-25T14:01:56+00:00",
          "start": "2018-07-25T14:01:56+00:00"
        },
        "system": "unknown",
        "type": {
          "coding": [
            {
              "code": "visitid",
              "system": "http://terminology.hl7.org/CodeSystem/v2-0203"
            }
          ]
        },
        "value": "5609582645793882000"
      }
    ],
    "location": [
      {
        "location": {
          "display": "Simulated Hospital, Orthopaedic ward, 1, Orthopaedic, Bay A, Bed 1",
          "reference": "Location/664e7e14081f55046462898547442a77"
        },
        "period": {
          "start": "2019-03-09T13:01:56+00:00"
        },
        "status": "active"
      },
      {
        "location": {
          "display": "PV1-6-Simulated Hospital, PV1-6-Orthopaedic ward, PV1-6-0, PV1-6-Orthopaedic, PV1-6-Bay A, PV1-6-Bed 1",
          "reference": "Location/91e4822472ed55a3fea9bfad0cd79119"
        },
        "status": "completed"
      }
    ],
    "participant": [
      {
        "individual": {
          "reference": "Practitioner/be23e86040afcfb76dbdb7a761c43686"
        },
        "type": [
          {
            "coding": [
              {
                "code": "ATND",
                "display": "attender",
                "system": "http://terminology.hl7.org/CodeSystem/v3-ParticipationType"
              }
            ]
          }
        ]
      },
      {
        "individual": {
          "reference": "Practitioner/be23e86040afcfb76dbdb7a761c43686"
        },
        "type": [
          {
            "coding": [
              {
                "code": "REF",
                "display": "referrer",
                "system": "http://terminology.hl7.org/CodeSystem/v3-ParticipationType"
              }
            ]
          }
        ]
      },
      {
        "individual": {
          "reference": "Practitioner/be23e86040afcfb76dbdb7a761c43686"
        },
        "type": [
          {
            "coding": [
              {
                "code": "CON",
                "display": "consultant",
                "system": "http://terminology.hl7.org/CodeSystem/v3-ParticipationType"
              }
            ]
          }
        ]
      },
      {
        "individual": {
          "reference": "Practitioner/be23e86040afcfb76dbdb7a761c43686"
        },
        "type": [
          {
            "coding": [
              {
                "code": "ADM",
                "display": "admitter",
                "system": "http://terminology.hl7.org/CodeSystem/v3-ParticipationType"
              }
            ]
          }
        ]
      },
      {
        "individual": {
          "reference": "Practitioner/be23e86040afcfb76dbdb7a761c43686"
        },
        "type": [
          {
            "coding": [
              {
                "code": "PART",
                "display": "Participation",
                "system": "http://terminology.hl7.org/CodeSystem/v3-ParticipationType"
              }
            ]
          }
        ]
      }
    ],
    "period": {
      "end": "2011-03-09T13:01:56+00:00",
      "start": "2009-03-09T13:01:56+00:00"
    },
    "resourceType": "Encounter",
    "serviceType": {
      "coding": [
        {
          "code": "180"
        }
      ]
    },
    "status": "finished",
    "subject": {
      "reference": "Patient/c62fd5cd919a239def3d5d89aea8638c"
    },
    "type": [
      {
        "coding": [
          {
            "code": "28b"
          }
        ]
      }
    ]
  },
  {
    "id": "2f591a61e0e0fcca20a1198c1a7e5555",
    "identifier": [
      {
        "system": "unknown",
        "type": {
          "coding": [
            {
              "code": "ORGDR"
            }
          ]
        },
        "value": "C184726198"
      }
    ],
    "name": [
      {
        "family": "Connell",
        "given": [
          "Alistair"
        ],
        "prefix": [
          "Dr."
        ],
        "use": "anonymous"
      }
    ],
    "resourceType": "Practitioner"
  },
  {
    "active": true,
    "id": "d9ae158dede9d7f233737872fd74760b",
    "identifier": [
      {
        "type": {
          "coding": [
            {
              "code": "RCode",
              "system": "http://terminology.hl7.org/CodeSystem/v2-0203"
            }
          ]
        },
        "value": "6010"
      }
    ],
    "name": "Resposible - YIEWSLEY FAMILY PRACTICE",
    "resourceType": "Organization"
  },
  {
    "activity": {
      "coding": [
        {
          "display": "event - :ADT^A01"
        }
      ]
    },
    "agent": [
      {
        "who": {
          "reference": "Practitioner/2f591a61e0e0fcca20a1198c1a7e5555"
        }
      },
      {
        "who": {
          "reference": "Organization/d9ae158dede9d7f233737872fd74760b"
        }
      }
    ],
    "id": "f34df587aaabe414020766e88c6223b6",
    "recorded": "2019-03-09T13:01:56.000+00:00",
    "resourceType": "Provenance",
    "target": [
      {
        "reference": "MessageHeader/fe31fdca01804bd2115d9cdb5c8ace51"
      }
    ]
  },
  {
    "category": [
      "environment"
    ],
    "clinicalStatus": {
      "coding": [
        {
          "code": "active",
          "system": "http://terminology.hl7.org/CodeSystem/allergyintolerance-clinical"
        }
      ]
    },
    "code": {
      "coding": [
        {
          "code": "Z88.0",
          "display": "Personal history of allergy to penicillin",
          "system": "ZAL"
        }
      ]
    },
    "criticality": "unable-to-assess",
    "id": "7c3e7f71981b1c562050cb7fe0592dac",
    "patient": {
      "reference": "Patient/c62fd5cd919a239def3d5d89aea8638c"
    },
    "reaction": [
      {
        "manifestation": [
          {
            "text": "Shortness of breath"
          }
        ],
        "severity": "moderate"
      }
    ],
    "resourceType": "AllergyIntolerance",
    "type": "allergy"
  },
  {
    "category": [
      "environment"
    ],
    "clinicalStatus": {
      "coding": [
        {
          "code": "active",
          "system": "http://terminology.hl7.org/CodeSystem/allergyintolerance-clinical"
        }
      ]
    },
    "code": {
      "coding": [
        {
          "code": "T63.441A",
          "display": "Toxic effect of venom of bees",
          "system": "ZAL"
        }
      ]
    },
    "criticality": "unable-to-assess",
    "id": "72eecd694c36af28727f1896da3b2498",
    "patient": {
      "reference": "Patient/c62fd5cd919a239def3d5d89aea8638c"
    },
    "reaction": [
      {
        "manifestation": [
          {
            "text": "Vomiting"
          }
        ],
        "severity": "moderate"
      }
    ],
    "resourceType": "AllergyIntolerance",
    "type": "allergy"
  },
  {
    "category": [
      "environment"
    ],
    "clinicalStatus": {
      "coding": [
        {
          "code": "active",
          "system": "http://terminology.hl7.org/CodeSystem/allergyintolerance-clinical"
        }
      ]
    },
    "code": {
      "coding": [
        {
          "code": "Z91.013",
          "display": "Personal history of allergy to sea food",
          "system": "ZAL"
        }
      ]
    },
    "criticality": "unable-to-assess",
    "id": "5458e7bb48ca5f8dc0f61331edf14f7e",
    "patient": {
      "reference": "Patient/c62fd5cd919a239def3d5d89aea8638c"
    },
    "reaction": [
      {
        "manifestation": [
          {
            "text": "Swollen face"
          },
          {
            "text": "Big Face"
          }
        ],
        "severity": "moderate"
      }
    ],
    "resourceType": "AllergyIntolerance",
    "type": "allergy"
  },
  {
    "category": [
      "environment"
    ],
    "clinicalStatus": {
      "coding": [
        {
          "code": "active",
          "system": "http://terminology.hl7.org/CodeSystem/allergyintolerance-clinical"
        }
      ]
    },
    "code": {
      "coding": [
        {
          "code": "Z91.040",
          "display": "Latex allergy",
          "system": "ZAL"
        }
      ]
    },
    "criticality": "unable-to-assess",
    "id": "482b18c61338a31fd973ec6f501cd8da",
    "patient": {
      "reference": "Patient/c62fd5cd919a239def3d5d89aea8638c"
    },
    "reaction": [
      {
        "manifestation": [
          {
            "text": "Raised, itchy, red rash"
          }
        ],
        "severity": "moderate"
      }
    ],
    "resourceType": "AllergyIntolerance",
    "type": "allergy"
  },
  {
    "category": [
      {
        "coding": [
          {
            "code": "laboratory",
            "system": "http://terminology.hl7.org/CodeSystem/observation-category"
          }
        ]
      }
    ],
    "code": {
      "coding": [
        {
          "code": "7475632",
          "display": "XCHES",
          "system": "WinPath"
        }
      ]
    },
    "effectiveDateTime": "2019-03-11T14:25:58+00:00",
    "id": "cae5b475d12984a2f755206590e33be1",
    "issued": "2009-08-07T06:05:04.321+00:00",
    "resourceType": "Observation",
    "status": "final",
    "subject": {
      "reference": "Patient/c62fd5cd919a239def3d5d89aea8638c"
    },
    "valueString": "1. Clear both lung fields and costophrenic angles. Normal cardiac size and shape"
  },
  {
    "category": [
      {
        "coding": [
          {
            "code": "laboratory",
            "system": "http://terminology.hl7.org/CodeSystem/observation-category"
          }
        ]
      }
    ],
    "code": {
      "coding": [
        {
          "code": "7475632",
          "display": "XCHES",
          "system": "WinPath"
        }
      ]
    },
    "effectiveDateTime": "2019-03-11T14:25:58+00:00",
    "id": "2e2b784a3547451c3f3951c60d2cce61",
    "issued": "2009-08-07T06:05:04.321+00:00",
    "resourceType": "Observation",
    "status": "final",
    "subject": {
      "reference": "Patient/c62fd5cd919a239def3d5d89aea8638c"
    },
    "valueString": "2. Clear both lung fields and costophrenic angles. Normal cardiac size and shape"
  },
  {
    "category": {
      "coding": [
        {
          "code": "P"
        }
      ]
    },
    "code": {
      "coding": [
        {
          "code": "R25.1",
          "display": "Caesarean hysterectomy"
        }
      ],
      "text": "Caesarean hysterectomy"
    },
    "id": "526078fa75c266886988ee5b0ec5ceea",
    "performedDateTime": "2019-03-09T14:05:32+00:00",
    "reasonCode": [
      {
        "coding": [
          {
            "code": "0"
          }
        ]
      }
    ],
    "resourceType": "Procedure",
    "status": "unknown",
    "subject": {
      "reference": "Patient/c62fd5cd919a239def3d5d89aea8638c"
    }
  },
  {
    "category": {
      "coding": [
        {
          "code": "P"
        }
      ]
    },
    "code": {
      "coding": [
        {
          "code": "R25.1",
          "display": "Caesarean hysterectomy"
        }
      ],
      "text": "Caesarean hysterectomy"
    },
    "id": "526078fa75c266886988ee5b0ec5ceea",
    "performedDateTime": "2019-03-09T14:05:32+00:00",
    "reasonCode": [
      {
        "coding": [
          {
            "code": "0"
          }
        ]
      }
    ],
    "resourceType": "Procedure",
    "status": "unknown",
    "subject": {
      "reference": "Patient/c62fd5cd919a239def3d5d89aea8638c"
    }
  }
]