[
  {
    "active": true,
    "id": "a721017f8d4db6f9dd8775d00fb96db8",
    "identifier": [
      {
        "value": "EHS"
      }
    ],
    "name": "Unknown",
    "resourceType": "Organization"
  },
  {
    "destination": [
      {
        "endpoint": {
          "extension": [
            {
              "url": "http://hl7.org/fhir/StructureDefinition/data-absent-reason",
              "valueCode": "unknown"
            }
          ]
        }
      }
    ],
    "eventCoding": {
      "code": "A11",
      "display": "ADT^A11^ADT_A09",
      "system": "http://terminology.hl7.org/CodeSystem/v2-0003"
    },
    "id": "247e0ab081413f88c9ce93e8c890d921",
    "meta": {
      "security": [
        {
          "code": "ADTADM"
        }
      ],
      "tag": [
        {
          "code": "T",
          "system": "http://terminology.hl7.org/CodeSystem/v2-0103"
        },
        {
          "system": "http://terminology.hl7.org/CodeSystem/v2-0207"
        }
      ]
    },
    "resourceType": "MessageHeader",
    "sender": {
      "reference": "Organization/a721017f8d4db6f9dd8775d00fb96db8"
    },
    "source": {
      "endpoint": {
        "extension": [
          {
            "url": "http://hl7.org/fhir/R4/extension-data-absent-reason.html",
            "valueCode": "unknown"
          }
        ]
      },
      "name": "EPIC"
    }
  },
  {
    "active": true,
    "id": "d60db5d9aa7a0af8838eef6ccfdc964e",
    "identifier": [
      {
        "value": "EPIC"
      }
    ],
    "name": "Unknown",
    "resourceType": "Organization"
  },
  {
    "active": true,
    "id": "e98f3aed4caa8b1be587b89b74d12f6d",
    "identifier": [
      {
        "value": "EPI"
      }
    ],
    "name": "Unknown",
    "resourceType": "Organization"
  },
  {
    "active": true,
    "address": [
      {
        "city": "MADISON",
        "country": "US",
        "line": [
          "100 W WILSON ST"
        ],
        "postalCode": "53703",
        "state": "WI"
      },
      {
        "district": "DANE"
      }
    ],
    "birthDate": "1988-02-10",
    "communication": [
      {
        "language": {
          "coding": [
            {
              "code": "ENG"
            }
          ]
        },
        "preferred": true
      }
    ],
    "deceasedBoolean": false,
    "gender": "male",
    "id": "243bc1c4d9e8c1970f2b83d35a7f68ee",
    "identifier": [
      {
        "assigner": {
          "reference": "Organization/d60db5d9aa7a0af8838eef6ccfdc964e"
        },
        "system": "unknown",
        "type": {
          "coding": [
            {
              "code": "MRN",
              "system": "http://terminology.hl7.org/CodeSystem/v2-0203"
            }
          ]
        },
        "value": "E4018"
      },
      {
        "assigner": {
          "reference": "Organization/e98f3aed4caa8b1be587b89b74d12f6d"
        },
        "system": "unknown",
        "type": {
          "coding": [
            {
              "code": "MR",
              "system": "http://terminology.hl7.org/CodeSystem/v2-0203"
            }
          ]
        },
        "value": "203705"
      },
      {
        "system": "http://hl7.org/fhir/sid/us-ssn",
        "type": {
          "coding": [
            {
              "code": "SB",
              "system": "http://terminology.hl7.org/CodeSystem/v2-0203"
            }
          ]
        },
        "value": "564-87-6112"
      }
    ],
    "maritalStatus": {
      "coding": [
        {
          "code": "unknown",
          "display": "Unknown",
          "system": "http://terminology.hl7.org/CodeSystem/v3-MaritalStatus",
          "version": "v1"
        }
      ]
    },
    "multipleBirthBoolean": false,
    "name": [
      {
        "family": "ELLIOTT",
        "given": [
          "IAN"
        ],
        "use": "usual"
      }
    ],
    "resourceType": "Patient",
    "telecom": [
      {
        "system": "email",
        "use": "home",
        "value": "hey@hey.com"
      }
    ]
  },
  {
    "active": true,
    "id": "a721017f8d4db6f9dd8775d00fb96db8",
    "identifier": [
      {
        "value": "EHS"
      }
    ],
    "name": "Unknown",
    "resourceType": "Organization"
  },
  {
    "id": "1d00e17a9b3cba1286e88ade7533c4a8",
    "identifier": [
      {
        "value": "EPIC"
      }
    ],
    "patient": {
      "reference": "Patient/243bc1c4d9e8c1970f2b83d35a7f68ee"
    },
    "resourceType": "Device",
    "type": {
      "coding": [
        {
          "code": "unknown"
        }
      ]
    }
  },
  {
    "id": "a3e44a172ce488726f0d007e9a3b9379",
    "identifier": [
      {
        "system": "unknown",
        "type": {
          "coding": [
            {
              "code": "AN",
              "system": "https://terminology.hl7.org/3.0.0/CodeSystem-v2-0203"
            }
          ],
          "text": "Account Number"
        },
        "value": "1000530"
      }
    ],
    "resourceType": "Account",
    "status": "active",
    "subject": [
      {
        "reference": "Patient/243bc1c4d9e8c1970f2b83d35a7f68ee"
      }
    ]
  },
  {
    "category": [
      {
        "coding": [
          {
            "code": "unknown"
          }
        ]
      }
    ],
    "code": {
      "coding": [
        {
          "display": "dgfesfv"
        }
      ],
      "text": "dgfesfv"
    },
    "id": "4b1d4218a8476eca2406ae29f7ce9388",
    "resourceType": "Condition",
    "subject": {
      "reference": "Patient/243bc1c4d9e8c1970f2b83d35a7f68ee"
    },
    "verificationStatus": {
      "coding": [
        {
          "code": "entered-in-error",
          "system": "http://terminology.hl7.org/CodeSystem/condition-ver-status"
        }
      ]
    }
  },
  {
    "id": "198c5e96d6b73c1aa4273feb6027e096",
    "mode": "instance",
    "name": "163",
    "physicalType": {
      "coding": [
        {
          "code": "ro",
          "system": "http://terminology.hl7.org/CodeSystem/location-physical-type"
        }
      ]
    },
    "resourceType": "Location"
  },
  {
    "id": "e0c03b60d715d00e7eece59efbeb15cb",
    "mode": "instance",
    "name": "163-01",
    "partOf": {
      "reference": "Location/198c5e96d6b73c1aa4273feb6027e096"
    },
    "physicalType": {
      "coding": [
        {
          "code": "bd",
          "system": "http://terminology.hl7.org/CodeSystem/location-physical-type"
        }
      ]
    },
    "resourceType": "Location"
  },
  {
    "id": "e17f9c6870fabbef5c8046e962594817",
    "identifier": [
      {
        "system": "unknown",
        "type": {
          "coding": [
            {
              "code": "PROVID"
            }
          ]
        },
        "value": "1058"
      }
    ],
    "name": [
      {
        "family": "DERMATOLOGY",
        "given": [
          "PHYSICIAN",
          "THREE"
        ]
      }
    ],
    "resourceType": "Practitioner"
  },
  {
    "id": "e17f9c6870fabbef5c8046e962594817",
    "identifier": [
      {
        "system": "unknown",
        "type": {
          "coding": [
            {
              "code": "PROVID"
            }
          ]
        },
        "value": "1058"
      }
    ],
    "name": [
      {
        "family": "DERMATOLOGY",
        "given": [
          "PHYSICIAN",
          "THREE"
        ]
      }
    ],
    "resourceType": "Practitioner"
  },
  {
    "diagnosis": [
      {
        "condition": {
          "reference": "Condition/4b1d4218a8476eca2406ae29f7ce9388"
        },
        "role": {
          "coding": [
            {
              "display": "A"
            }
          ]
        }
      }
    ],
    "id": "b3d770cfbd582f9ec76cbd815ef61fd2",
    "patient": {
      "reference": "Patient/243bc1c4d9e8c1970f2b83d35a7f68ee"
    },
    "resourceType": "EpisodeOfCare",
    "status": "finished"
  },
  {
    "class": {
      "code": "U",
      "display": "Unknown",
      "system": "http://terminology.hl7.org/CodeSystem/v2-0004",
      "version": "v1"
    },
    "diagnosis": [
      {
        "condition": {
          "reference": "Condition/4b1d4218a8476eca2406ae29f7ce9388"
        },
        "use": {
          "coding": [
            {
              "display": "A"
            }
          ]
        }
      }
    ],
    "episodeOfCare": [
      {
        "reference": "EpisodeOfCare/b3d770cfbd582f9ec76cbd815ef61fd2"
      }
    ],
    "hospitalization": {
      "admitSource": {
        "coding": [
          {
            "code": "ASC"
          }
        ]
      }
    },
    "id": "e9e507165420cdaac877495233ef448d",
    "identifier": [
      {
        "system": "unknown",
        "type": {
          "coding": [
            {
              "code": "VN",
              "system": "http://terminology.hl7.org/CodeSystem/v2-0203"
            }
          ],
          "text": "visit number"
        },
        "value": "27068"
      }
    ],
    "location": [
      {
        "location": {
          "display": "163, 163-01",
          "reference": "Location/e0c03b60d715d00e7eece59efbeb15cb"
        },
        "status": "active"
      }
    ],
    "participant": [
      {
        "individual": {
          "reference": "Practitioner/e17f9c6870fabbef5c8046e962594817"
        },
        "type": [
          {
            "coding": [
              {
                "code": "ATND",
                "display": "attender",
                "system": "http://terminology.hl7.org/CodeSystem/v3-ParticipationType"
              }
            ]
          }
        ]
      },
      {
        "individual": {
          "reference": "Practitioner/e17f9c6870fabbef5c8046e962594817"
        },
        "type": [
          {
            "coding": [
              {
                "code": "ADM",
                "display": "admitter",
                "system": "http://terminology.hl7.org/CodeSystem/v3-ParticipationType"
              }
            ]
          }
        ]
      }
    ],
    "period": {
      "start": "2017-02-10T14:19:00+00:00"
    },
    "resourceType": "Encounter",
    "serviceType": {
      "coding": [
        {
          "code": "Burn"
        }
      ]
    },
    "status": "unknown",
    "subject": {
      "reference": "Patient/243bc1c4d9e8c1970f2b83d35a7f68ee"
    },
    "type": [
      {
        "coding": [
          {
            "code": "EL"
          }
        ]
      }
    ]
  },
  {
    "id": "00daed7849b4152e8c3922730b93401e",
    "identifier": [
      {
        "system": "unknown",
        "value": "ADTADM"
      }
    ],
    "name": [
      {
        "family": "ADT",
        "given": [
          "ADMIN"
        ]
      }
    ],
    "resourceType": "Practitioner"
  },
  {
    "active": true,
    "id": "a721017f8d4db6f9dd8775d00fb96db8",
    "identifier": [
      {
        "value": "EHS"
      }
    ],
    "name": "Unknown",
    "resourceType": "Organization"
  },
  {
    "activity": {
      "coding": [
        {
          "display": "event - :ADT^A11"
        }
      ]
    },
    "agent": [
      {
        "who": {
          "reference": "Practitioner/00daed7849b4152e8c3922730b93401e"
        }
      },
      {
        "who": {
          "reference": "Organization/a721017f8d4db6f9dd8775d00fb96db8"
        }
      }
    ],
    "id": "dc1e558d9ffd1dfb0ca3b0d03bd46622",
    "occurredDateTime": "2017-02-10T14:19:00+00:00",
    "reason": [
      {
        "coding": [
          {
            "code": "U",
            "display": "Unknown",
            "system": "HL70062",
            "version": "v1"
          }
        ]
      }
    ],
    "recorded": "2017-05-26T13:35:25.000+00:00",
    "resourceType": "Provenance",
    "target": [
      {
        "reference": "MessageHeader/247e0ab081413f88c9ce93e8c890d921"
      }
    ]
  }
]
