[
  {
    "active": true,
    "address": [
      {
        "country": "FRA"
      }
    ],
    "id": "1c45867c9ec34ad6e0238d3e236c0cb2",
    "identifier": [
      {
        "value": "Saint-Louis"
      }
    ],
    "name": "Unknown",
    "resourceType": "Organization"
  },
  {
    "active": true,
    "id": "dc8ae93a50faa9d378f41b11ee65dff9",
    "identifier": [
      {
        "value": "SaintLouis"
      }
    ],
    "name": "Unknown",
    "resourceType": "Organization"
  },
  {
    "destination": [
      {
        "endpoint": {
          "extension": [
            {
              "url": "http://hl7.org/fhir/R4/extension-data-absent-reason.html",
              "valueCode": "unknown"
            }
          ]
        },
        "name": "?",
        "receiver": {
          "reference": "Organization/dc8ae93a50faa9d378f41b11ee65dff9"
        }
      }
    ],
    "eventCoding": {
      "code": "A09",
      "display": "ADT^A09^ADT_A09",
      "system": "http://terminology.hl7.org/CodeSystem/v2-0003"
    },
    "id": "990d314946f68d15197e42fd36f40230",
    "language": "EN",
    "meta": {
      "tag": [
        {
          "code": "T",
          "system": "http://terminology.hl7.org/CodeSystem/v2-0103"
        },
        {
          "system": "http://terminology.hl7.org/CodeSystem/v2-0207"
        }
      ]
    },
    "resourceType": "MessageHeader",
    "sender": {
      "reference": "Organization/1c45867c9ec34ad6e0238d3e236c0cb2"
    },
    "source": {
      "endpoint": {
        "extension": [
          {
            "url": "http://hl7.org/fhir/R4/extension-data-absent-reason.html",
            "valueCode": "unknown"
          }
        ]
      },
      "name": "?"
    }
  },
  {
    "active": true,
    "id": "f8ef069711ddcdec2941e488c47f739b",
    "identifier": [
      {
        "value": "Saint-Louis"
      }
    ],
    "name": "Unknown",
    "resourceType": "Organization"
  },
  {
    "active": true,
    "gender": "male",
    "id": "a3b8b36c16c5d8db3af530733a4d82b1",
    "identifier": [
      {
        "assigner": {
          "reference": "Organization/f8ef069711ddcdec2941e488c47f739b"
        },
        "system": "unknown",
        "type": {
          "coding": [
            {
              "code": "PI",
              "system": "http://terminology.hl7.org/CodeSystem/v2-0203"
            }
          ]
        },
        "value": "12345"
      }
    ],
    "multipleBirthBoolean": false,
    "name": [
      {
        "family": "LAW",
        "given": [
          "Robert"
        ],
        "use": "official"
      }
    ],
    "resourceType": "Patient"
  },
  {
    "active": true,
    "id": "f8ef069711ddcdec2941e488c47f739b",
    "identifier": [
      {
        "value": "Saint-Louis"
      }
    ],
    "name": "Unknown",
    "resourceType": "Organization"
  },
  {
    "id": "3bec44b210351d280779dbb2b25b78f8",
    "identifier": [
      {
        "value": "?"
      }
    ],
    "patient": {
      "reference": "Patient/a3b8b36c16c5d8db3af530733a4d82b1"
    },
    "resourceType": "Device",
    "type": {
      "coding": [
        {
          "code": "unknown"
        }
      ]
    }
  },
  {
    "active": true,
    "id": "f8ef069711ddcdec2941e488c47f739b",
    "identifier": [
      {
        "value": "Saint-Louis"
      }
    ],
    "name": "Unknown",
    "resourceType": "Organization"
  },
  {
    "id": "9d3ed2b1fba0deafde2c3bd95b069105",
    "identifier": [
      {
        "assigner": {
          "reference": "Organization/f8ef069711ddcdec2941e488c47f739b"
        },
        "system": "unknown",
        "type": {
          "coding": [
            {
              "code": "AN",
              "system": "https://terminology.hl7.org/3.0.0/CodeSystem-v2-0203"
            }
          ],
          "text": "Account Number"
        },
        "value": "987654"
      }
    ],
    "resourceType": "Account",
    "status": "active",
    "subject": [
      {
        "reference": "Patient/a3b8b36c16c5d8db3af530733a4d82b1"
      }
    ]
  },
  {
    "id": "ed8517add5721f671405f1334480eddf",
    "mode": "instance",
    "name": "Saint-Louis",
    "physicalType": {
      "coding": [
        {
          "code": "si",
          "system": "http://terminology.hl7.org/CodeSystem/location-physical-type"
        }
      ]
    },
    "resourceType": "Location"
  },
  {
    "id": "4b1767aeb9cc67d1a3905613b75d5861",
    "mode": "instance",
    "name": "6043",
    "partOf": {
      "reference": "Location/ed8517add5721f671405f1334480eddf"
    },
    "physicalType": {
      "coding": [
        {
          "code": "si",
          "system": "http://terminology.hl7.org/CodeSystem/location-physical-type"
        }
      ]
    },
    "resourceType": "Location"
  },
  {
    "id": "0e88b1dbb39eb23e54ac4459d4aeb5a5",
    "mode": "instance",
    "name": "200",
    "partOf": {
      "reference": "Location/4b1767aeb9cc67d1a3905613b75d5861"
    },
    "physicalType": {
      "coding": [
        {
          "code": "ro",
          "system": "http://terminology.hl7.org/CodeSystem/location-physical-type"
        }
      ]
    },
    "resourceType": "Location"
  },
  {
    "id": "0cda32327b2b2fe579d11809b57a384a",
    "mode": "instance",
    "name": "1",
    "partOf": {
      "reference": "Location/0e88b1dbb39eb23e54ac4459d4aeb5a5"
    },
    "physicalType": {
      "coding": [
        {
          "code": "bd",
          "system": "http://terminology.hl7.org/CodeSystem/location-physical-type"
        }
      ]
    },
    "resourceType": "Location"
  },
  {
    "class": {
      "code": "IMP",
      "display": "inpatient encounter",
      "system": "http://terminology.hl7.org/CodeSystem/v3-ActCode",
      "version": "v1"
    },
    "id": "807be984bafd5c1af191d66913756494",
    "location": [
      {
        "location": {
          "display": "Saint-Louis, 6043, 200, 1",
          "reference": "Location/0cda32327b2b2fe579d11809b57a384a"
        },
        "status": "completed"
      }
    ],
    "resourceType": "Encounter",
    "status": "in-progress",
    "subject": {
      "reference": "Patient/a3b8b36c16c5d8db3af530733a4d82b1"
    },
    "type": [
      {
        "coding": [
          {
            "code": "unknown"
          }
        ]
      }
    ]
  },
  {
    "id": "224be794a362ffea0e545d256fb83608",
    "identifier": [
      {
        "system": "unknown",
        "value": "1002"
      }
    ],
    "name": [
      {
        "family": "STRAW",
        "given": [
          "Eva"
        ]
      }
    ],
    "resourceType": "Practitioner"
  },
  {
    "active": true,
    "id": "f8ef069711ddcdec2941e488c47f739b",
    "identifier": [
      {
        "value": "Saint-Louis"
      }
    ],
    "name": "Unknown",
    "resourceType": "Organization"
  },
  {
    "activity": {
      "coding": [
        {
          "display": "event - :ADT^A09"
        }
      ]
    },
    "agent": [
      {
        "who": {
          "reference": "Practitioner/224be794a362ffea0e545d256fb83608"
        }
      },
      {
        "who": {
          "reference": "Organization/f8ef069711ddcdec2941e488c47f739b"
        }
      }
    ],
    "id": "8c3e8590384413f45404217c76094c4d",
    "occurredDateTime": "2005-05-30T12:25:00+00:00",
    "recorded": "2005-05-30T12:30:00.000+00:00",
    "resourceType": "Provenance",
    "target": [
      {
        "reference": "MessageHeader/990d314946f68d15197e42fd36f40230"
      }
    ]
  }
]
