[
  {
    "active": true,
    "id": "fba3b75619255215532f7d558e6d27fc",
    "identifier": [
      {
        "value": "UNV"
      }
    ],
    "name": "Unknown",
    "resourceType": "Organization"
  },
  {
    "active": true,
    "id": "fba3b75619255215532f7d558e6d27fc",
    "identifier": [
      {
        "value": "UNV"
      }
    ],
    "name": "Unknown",
    "resourceType": "Organization"
  },
  {
    "destination": [
      {
        "endpoint": {
          "extension": [
            {
              "url": "http://hl7.org/fhir/R4/extension-data-absent-reason.html",
              "valueCode": "unknown"
            }
          ]
        },
        "name": "PREMISE",
        "receiver": {
          "reference": "Organization/fba3b75619255215532f7d558e6d27fc"
        }
      }
    ],
    "eventCoding": {
      "code": "A04",
      "display": "ADT^A04^",
      "system": "http://terminology.hl7.org/CodeSystem/v2-0003"
    },
    "id": "2dfcad1f32a0c1c94f5446e2ee3b7f66",
    "meta": {
      "tag": [
        {
          "code": "P",
          "system": "http://terminology.hl7.org/CodeSystem/v2-0103"
        },
        {
          "system": "http://terminology.hl7.org/CodeSystem/v2-0207"
        }
      ]
    },
    "resourceType": "MessageHeader",
    "sender": {
      "reference": "Organization/fba3b75619255215532f7d558e6d27fc"
    },
    "source": {
      "endpoint": {
        "extension": [
          {
            "url": "http://hl7.org/fhir/R4/extension-data-absent-reason.html",
            "valueCode": "unknown"
          }
        ]
      },
      "name": "MS4_AZ"
    }
  },
  {
    "active": true,
    "address": [
      {
        "city": "CRAIGMONT",
        "country": "USA",
        "line": [
          "1234 LOONEY RD",
          "APT A"
        ],
        "postalCode": "83523",
        "state": "ID"
      }
    ],
    "birthDate": "1983-02-15",
    "gender": "male",
    "id": "77f9f05dba045b275e3a3a50011f8411",
    "identifier": [
      {
        "system": "unknown",
        "value": "19050114293307.1082"
      },
      {
        "system": "http://hl7.org/fhir/sid/us-ssn",
        "type": {
          "coding": [
            {
              "code": "SB",
              "system": "http://terminology.hl7.org/CodeSystem/v2-0203"
            }
          ]
        },
        "value": "111-11-1111"
      }
    ],
    "multipleBirthBoolean": false,
    "name": [
      {
        "family": "BUNNY",
        "given": [
          "BUGS",
          "RABBIT"
        ],
        "suffix": [
          "MS"
        ]
      }
    ],
    "resourceType": "Patient"
  },
  {
    "active": true,
    "id": "fba3b75619255215532f7d558e6d27fc",
    "identifier": [
      {
        "value": "UNV"
      }
    ],
    "name": "Unknown",
    "resourceType": "Organization"
  },
  {
    "id": "de57df15c6bf1659a80f3699e37419c3",
    "identifier": [
      {
        "value": "MS4_AZ"
      }
    ],
    "patient": {
      "reference": "Patient/77f9f05dba045b275e3a3a50011f8411"
    },
    "resourceType": "Device",
    "type": {
      "coding": [
        {
          "code": "unknown"
        }
      ]
    }
  },
  {
    "id": "e082d7673a749c03a593c594b4984348",
    "identifier": [
      {
        "system": "unknown",
        "type": {
          "coding": [
            {
              "code": "AN",
              "system": "https://terminology.hl7.org/3.0.0/CodeSystem-v2-0203"
            }
          ],
          "text": "Account Number"
        },
        "value": "111-11-1111"
      }
    ],
    "resourceType": "Account",
    "status": "active",
    "subject": [
      {
        "reference": "Patient/77f9f05dba045b275e3a3a50011f8411"
      }
    ]
  },
  {
    "id": "14330fc909e7b2b1e130a056a1d145ab",
    "mode": "instance",
    "name": "UNV",
    "physicalType": {
      "coding": [
        {
          "code": "si",
          "system": "http://terminology.hl7.org/CodeSystem/location-physical-type"
        }
      ]
    },
    "resourceType": "Location"
  },
  {
    "id": "6f92489311876ef6130e02d0c7ff951a",
    "mode": "instance",
    "name": "ED",
    "partOf": {
      "reference": "Location/14330fc909e7b2b1e130a056a1d145ab"
    },
    "physicalType": {
      "coding": [
        {
          "code": "si",
          "system": "http://terminology.hl7.org/CodeSystem/location-physical-type"
        }
      ]
    },
    "resourceType": "Location"
  },
  {
    "id": "80385f1310c3f3804e2f179e6cae8064",
    "identifier": [
      {
        "system": "unknown",
        "value": "999-99-9999"
      }
    ],
    "name": [
      {
        "family": "MUNCHER",
        "given": [
          "CHANDRA",
          "ANDRIA"
        ],
        "prefix": [
          "DR"
        ],
        "suffix": [
          "MD"
        ]
      }
    ],
    "resourceType": "Practitioner"
  },
  {
    "id": "7e8126746a71a0575a23dc4244b89fe9",
    "identifier": [
      {
        "system": "unknown",
        "value": "888-88-8888"
      }
    ],
    "name": [
      {
        "family": "SMETHERS",
        "given": [
          "ANNETTA",
          "JONI"
        ],
        "prefix": [
          "DR"
        ],
        "suffix": [
          "MD"
        ]
      }
    ],
    "resourceType": "Practitioner"
  },
  {
    "class": {
      "code": "EMER",
      "display": "emergency",
      "system": "http://terminology.hl7.org/CodeSystem/v3-ActCode",
      "version": "v1"
    },
    "hospitalization": {
      "admitSource": {
        "coding": [
          {
            "code": "7"
          }
        ]
      }
    },
    "id": "1b6c0b3b45f5f032b50148e52f7b1678",
    "location": [
      {
        "location": {
          "display": "UNV, ED",
          "reference": "Location/6f92489311876ef6130e02d0c7ff951a"
        },
        "status": "active"
      }
    ],
    "participant": [
      {
        "individual": {
          "reference": "Practitioner/80385f1310c3f3804e2f179e6cae8064"
        },
        "type": [
          {
            "coding": [
              {
                "code": "ATND",
                "display": "attender",
                "system": "http://terminology.hl7.org/CodeSystem/v3-ParticipationType"
              }
            ]
          }
        ]
      },
      {
        "individual": {
          "reference": "Practitioner/7e8126746a71a0575a23dc4244b89fe9"
        },
        "type": [
          {
            "coding": [
              {
                "code": "REF",
                "display": "referrer",
                "system": "http://terminology.hl7.org/CodeSystem/v3-ParticipationType"
              }
            ]
          }
        ]
      }
    ],
    "period": {
      "start": "2018-03-01T01:00:00+00:00"
    },
    "resourceType": "Encounter",
    "status": "in-progress",
    "subject": {
      "reference": "Patient/77f9f05dba045b275e3a3a50011f8411"
    },
    "type": [
      {
        "coding": [
          {
            "code": "C"
          }
        ]
      }
    ]
  },
  {
    "active": true,
    "id": "fba3b75619255215532f7d558e6d27fc",
    "identifier": [
      {
        "value": "UNV"
      }
    ],
    "name": "Unknown",
    "resourceType": "Organization"
  }
]
