[
  {
    "active": true,
    "id": "a721017f8d4db6f9dd8775d00fb96db8",
    "identifier": [
      {
        "value": "EHS"
      }
    ],
    "name": "Unknown",
    "resourceType": "Organization"
  },
  {
    "destination": [
      {
        "endpoint": {
          "extension": [
            {
              "url": "http://hl7.org/fhir/StructureDefinition/data-absent-reason",
              "valueCode": "unknown"
            }
          ]
        }
      }
    ],
    "eventCoding": {
      "code": "A31",
      "display": "ADT^A31^ADT_A05",
      "system": "http://terminology.hl7.org/CodeSystem/v2-0003"
    },
    "id": "74acbc3f18bc5722297c7a00e7431874",
    "meta": {
      "security": [
        {
          "code": "HHADM"
        }
      ],
      "tag": [
        {
          "code": "T",
          "system": "http://terminology.hl7.org/CodeSystem/v2-0103"
        },
        {
          "system": "http://terminology.hl7.org/CodeSystem/v2-0207"
        }
      ]
    },
    "resourceType": "MessageHeader",
    "sender": {
      "reference": "Organization/a721017f8d4db6f9dd8775d00fb96db8"
    },
    "source": {
      "endpoint": {
        "extension": [
          {
            "url": "http://hl7.org/fhir/R4/extension-data-absent-reason.html",
            "valueCode": "unknown"
          }
        ]
      },
      "name": "EPIC"
    }
  },
  {
    "active": true,
    "id": "d60db5d9aa7a0af8838eef6ccfdc964e",
    "identifier": [
      {
        "value": "EPIC"
      }
    ],
    "name": "Unknown",
    "resourceType": "Organization"
  },
  {
    "active": true,
    "id": "e98f3aed4caa8b1be587b89b74d12f6d",
    "identifier": [
      {
        "value": "EPI"
      }
    ],
    "name": "Unknown",
    "resourceType": "Organization"
  },
  {
    "active": true,
    "address": [
      {
        "country": "US"
      }
    ],
    "birthDate": "1977-07-07",
    "deceasedBoolean": false,
    "gender": "male",
    "id": "1201b35c01272d509462ae13ddfe7577",
    "identifier": [
      {
        "assigner": {
          "reference": "Organization/d60db5d9aa7a0af8838eef6ccfdc964e"
        },
        "system": "unknown",
        "type": {
          "coding": [
            {
              "code": "MRN",
              "system": "http://terminology.hl7.org/CodeSystem/v2-0203"
            }
          ]
        },
        "value": "E4166"
      },
      {
        "assigner": {
          "reference": "Organization/e98f3aed4caa8b1be587b89b74d12f6d"
        },
        "system": "unknown",
        "type": {
          "coding": [
            {
              "code": "MR",
              "system": "http://terminology.hl7.org/CodeSystem/v2-0203"
            }
          ]
        },
        "value": "203836"
      },
      {
        "system": "http://hl7.org/fhir/sid/us-ssn",
        "type": {
          "coding": [
            {
              "code": "SB",
              "system": "http://terminology.hl7.org/CodeSystem/v2-0203"
            }
          ]
        },
        "value": "454-56-4554"
      }
    ],
    "multipleBirthBoolean": false,
    "name": [
      {
        "family": "CATO",
        "given": [
          "HHAB"
        ],
        "use": "usual"
      }
    ],
    "resourceType": "Patient"
  },
  {
    "active": true,
    "id": "a721017f8d4db6f9dd8775d00fb96db8",
    "identifier": [
      {
        "value": "EHS"
      }
    ],
    "name": "Unknown",
    "resourceType": "Organization"
  },
  {
    "id": "789620e4ef2f02435c53084c105ab746",
    "identifier": [
      {
        "value": "EPIC"
      }
    ],
    "patient": {
      "reference": "Patient/1201b35c01272d509462ae13ddfe7577"
    },
    "resourceType": "Device",
    "type": {
      "coding": [
        {
          "code": "unknown"
        }
      ]
    }
  },
  {
    "id": "e40f88191befc9d72bddc85b2ffe4c10",
    "identifier": [
      {
        "system": "unknown",
        "value": "HHADM"
      }
    ],
    "name": [
      {
        "family": "HOMEHEALTH",
        "given": [
          "ADMIN"
        ]
      }
    ],
    "resourceType": "Practitioner"
  },
  {
    "active": true,
    "id": "a721017f8d4db6f9dd8775d00fb96db8",
    "identifier": [
      {
        "value": "EHS"
      }
    ],
    "name": "Unknown",
    "resourceType": "Organization"
  },
  {
    "activity": {
      "coding": [
        {
          "display": "event - :ADT^A31"
        }
      ]
    },
    "agent": [
      {
        "who": {
          "reference": "Practitioner/e40f88191befc9d72bddc85b2ffe4c10"
        }
      },
      {
        "who": {
          "reference": "Organization/a721017f8d4db6f9dd8775d00fb96db8"
        }
      }
    ],
    "id": "9f1a353dd920e2ccf2b18af411a9a67e",
    "reason": [
      {
        "coding": [
          {
            "code": "U",
            "display": "Unknown",
            "system": "HL70062",
            "version": "v1"
          }
        ]
      }
    ],
    "recorded": "2017-05-26T13:35:37.000+00:00",
    "resourceType": "Provenance",
    "target": [
      {
        "reference": "MessageHeader/74acbc3f18bc5722297c7a00e7431874"
      }
    ]
  },
  {
    "address": [
      {
        "country": "US"
      }
    ],
    "birthDate": "1977-07-07",
    "gender": "male",
    "id": "698ac914f0ccd2a951ba61a4c9bd3b99",
    "name": [
      {
        "family": "CATO",
        "given": [
          "HHAB"
        ]
      }
    ],
    "patient": {
      "reference": "Patient/1201b35c01272d509462ae13ddfe7577"
    },
    "relationship": [
      {
        "coding": [
          {
            "code": "U",
            "display": "Unknown",
            "system": "http://terminology.hl7.org/CodeSystem/v2-0131",
            "version": "v1"
          }
        ]
      }
    ],
    "resourceType": "RelatedPerson"
  }
]
