[
  {
    "active": true,
    "id": "a721017f8d4db6f9dd8775d00fb96db8",
    "identifier": [
      {
        "value": "EHS"
      }
    ],
    "name": "Unknown",
    "resourceType": "Organization"
  },
  {
    "destination": [
      {
        "endpoint": {
          "extension": [
            {
              "url": "http://hl7.org/fhir/StructureDefinition/data-absent-reason",
              "valueCode": "unknown"
            }
          ]
        }
      }
    ],
    "eventCoding": {
      "code": "A28",
      "display": "ADT^A28^ADT_A05",
      "system": "http://terminology.hl7.org/CodeSystem/v2-0003"
    },
    "id": "ff80a53192ec0d16cd0c93dfda8b6179",
    "meta": {
      "security": [
        {
          "code": "HHI"
        }
      ],
      "tag": [
        {
          "code": "T",
          "system": "http://terminology.hl7.org/CodeSystem/v2-0103"
        },
        {
          "system": "http://terminology.hl7.org/CodeSystem/v2-0207"
        }
      ]
    },
    "resourceType": "MessageHeader",
    "sender": {
      "reference": "Organization/a721017f8d4db6f9dd8775d00fb96db8"
    },
    "source": {
      "endpoint": {
        "extension": [
          {
            "url": "http://hl7.org/fhir/R4/extension-data-absent-reason.html",
            "valueCode": "unknown"
          }
        ]
      },
      "name": "EPIC"
    }
  },
  {
    "active": true,
    "id": "d60db5d9aa7a0af8838eef6ccfdc964e",
    "identifier": [
      {
        "value": "EPIC"
      }
    ],
    "name": "Unknown",
    "resourceType": "Organization"
  },
  {
    "active": true,
    "id": "e98f3aed4caa8b1be587b89b74d12f6d",
    "identifier": [
      {
        "value": "EPI"
      }
    ],
    "name": "Unknown",
    "resourceType": "Organization"
  },
  {
    "active": true,
    "address": [
      {
        "city": "MADISON",
        "country": "US",
        "line": [
          "154 POST RD"
        ],
        "postalCode": "53713",
        "state": "WI"
      },
      {
        "district": "DANE"
      }
    ],
    "birthDate": "1941-02-28",
    "communication": [
      {
        "language": {
          "coding": [
            {
              "code": "ENG"
            }
          ]
        },
        "preferred": true
      }
    ],
    "deceasedBoolean": false,
    "gender": "male",
    "id": "5e64e1e95a2874f52fc5b90c4069e632",
    "identifier": [
      {
        "assigner": {
          "reference": "Organization/d60db5d9aa7a0af8838eef6ccfdc964e"
        },
        "system": "unknown",
        "type": {
          "coding": [
            {
              "code": "MRN",
              "system": "http://terminology.hl7.org/CodeSystem/v2-0203"
            }
          ]
        },
        "value": "E4161"
      },
      {
        "assigner": {
          "reference": "Organization/e98f3aed4caa8b1be587b89b74d12f6d"
        },
        "system": "unknown",
        "type": {
          "coding": [
            {
              "code": "MR",
              "system": "http://terminology.hl7.org/CodeSystem/v2-0203"
            }
          ]
        },
        "value": "203831"
      },
      {
        "system": "http://hl7.org/fhir/sid/us-ssn",
        "type": {
          "coding": [
            {
              "code": "SB",
              "system": "http://terminology.hl7.org/CodeSystem/v2-0203"
            }
          ]
        },
        "value": "425-57-9745"
      }
    ],
    "maritalStatus": {
      "coding": [
        {
          "code": "unknown",
          "display": "Unknown",
          "system": "http://terminology.hl7.org/CodeSystem/v3-MaritalStatus",
          "version": "v1"
        }
      ]
    },
    "multipleBirthBoolean": false,
    "name": [
      {
        "family": "POLDARK",
        "given": [
          "ROSS"
        ],
        "use": "usual"
      }
    ],
    "resourceType": "Patient"
  },
  {
    "active": true,
    "id": "a721017f8d4db6f9dd8775d00fb96db8",
    "identifier": [
      {
        "value": "EHS"
      }
    ],
    "name": "Unknown",
    "resourceType": "Organization"
  },
  {
    "id": "dac027514be38dce40d82972bd991c7a",
    "identifier": [
      {
        "value": "EPIC"
      }
    ],
    "patient": {
      "reference": "Patient/5e64e1e95a2874f52fc5b90c4069e632"
    },
    "resourceType": "Device",
    "type": {
      "coding": [
        {
          "code": "unknown"
        }
      ]
    }
  },
  {
    "id": "e68241e4e42eb668f2e1051f97077e18",
    "identifier": [
      {
        "system": "unknown",
        "value": "HHI"
      }
    ],
    "name": [
      {
        "family": "HOMEHEALTH",
        "given": [
          "INTAKE",
          "NURSE"
        ]
      }
    ],
    "resourceType": "Practitioner"
  },
  {
    "active": true,
    "id": "a721017f8d4db6f9dd8775d00fb96db8",
    "identifier": [
      {
        "value": "EHS"
      }
    ],
    "name": "Unknown",
    "resourceType": "Organization"
  },
  {
    "activity": {
      "coding": [
        {
          "display": "event - :ADT^A28"
        }
      ]
    },
    "agent": [
      {
        "who": {
          "reference": "Practitioner/e68241e4e42eb668f2e1051f97077e18"
        }
      },
      {
        "who": {
          "reference": "Organization/a721017f8d4db6f9dd8775d00fb96db8"
        }
      }
    ],
    "id": "d233c47b44ad684da4a0b28d7903ede7",
    "reason": [
      {
        "coding": [
          {
            "code": "U",
            "display": "Unknown",
            "system": "HL70062",
            "version": "v1"
          }
        ]
      }
    ],
    "recorded": "2017-05-26T13:35:37.000+00:00",
    "resourceType": "Provenance",
    "target": [
      {
        "reference": "MessageHeader/ff80a53192ec0d16cd0c93dfda8b6179"
      }
    ]
  },
  {
    "address": [
      {
        "city": "MADISON",
        "country": "US",
        "line": [
          "154 POST RD"
        ],
        "postalCode": "53713",
        "state": "WI"
      }
    ],
    "birthDate": "1941-02-28",
    "gender": "male",
    "id": "f3f2bf093c64e6d5afd7f2974ba3fefc",
    "name": [
      {
        "family": "POLDARK",
        "given": [
          "ROSS"
        ]
      }
    ],
    "patient": {
      "reference": "Patient/5e64e1e95a2874f52fc5b90c4069e632"
    },
    "relationship": [
      {
        "coding": [
          {
            "code": "U",
            "display": "Unknown",
            "system": "http://terminology.hl7.org/CodeSystem/v2-0131",
            "version": "v1"
          }
        ]
      }
    ],
    "resourceType": "RelatedPerson"
  },
  {
    "active": true,
    "address": [
      {
        "city": "VERONA",
        "line": [
          "1979 MILKY WAY"
        ],
        "postalCode": "53593",
        "state": "WI"
      }
    ],
    "id": "07450bee33e4b4656fec717ef442f16b",
    "name": "MEDICARE",
    "resourceType": "Organization"
  },
  {
    "birthDate": "1941-02-28",
    "gender": "male",
    "id": "ea1307c6b649618dedda94b980acc1d7",
    "name": [
      {
        "family": "POLDARK",
        "given": [
          "ROSS"
        ]
      }
    ],
    "patient": {
      "reference": "Patient/5e64e1e95a2874f52fc5b90c4069e632"
    },
    "resourceType": "RelatedPerson"
  },
  {
    "beneficiary": {
      "reference": "Patient/5e64e1e95a2874f52fc5b90c4069e632"
    },
    "id": "3125162c19dced0078cec001e5697710",
    "identifier": [
      {
        "type": {
          "text": "Insurance Plan Id"
        },
        "value": "PLANID"
      }
    ],
    "order": 1,
    "payor": [
      {
        "reference": "Organization/07450bee33e4b4656fec717ef442f16b"
      }
    ],
    "period": {
      "start": "1998-11-01T00:00:00+00:00"
    },
    "relationship": {
      "coding": [
        {
          "code": "U",
          "display": "Unknown",
          "system": "http://terminology.hl7.org/CodeSystem/v2-0131",
          "version": "v1"
        }
      ]
    },
    "resourceType": "Coverage",
    "status": "active",
    "subscriber": {
      "reference": "RelatedPerson/ea1307c6b649618dedda94b980acc1d7"
    },
    "type": {
      "coding": [
        {
          "code": "Medicare"
        }
      ]
    }
  }
]
