[
  {
    "active": true,
    "id": "a721017f8d4db6f9dd8775d00fb96db8",
    "identifier": [
      {
        "value": "EHS"
      }
    ],
    "name": "Unknown",
    "resourceType": "Organization"
  },
  {
    "destination": [
      {
        "endpoint": {
          "extension": [
            {
              "url": "http://hl7.org/fhir/StructureDefinition/data-absent-reason",
              "valueCode": "unknown"
            }
          ]
        }
      }
    ],
    "eventCoding": {
      "code": "A13",
      "display": "ADT^A13^ADT_A01",
      "system": "http://terminology.hl7.org/CodeSystem/v2-0003"
    },
    "id": "76b4ffa899486546391c944594a53938",
    "meta": {
      "security": [
        {
          "code": "ADTADM"
        }
      ],
      "tag": [
        {
          "code": "T",
          "system": "http://terminology.hl7.org/CodeSystem/v2-0103"
        },
        {
          "system": "http://terminology.hl7.org/CodeSystem/v2-0207"
        }
      ]
    },
    "resourceType": "MessageHeader",
    "sender": {
      "reference": "Organization/a721017f8d4db6f9dd8775d00fb96db8"
    },
    "source": {
      "endpoint": {
        "extension": [
          {
            "url": "http://hl7.org/fhir/R4/extension-data-absent-reason.html",
            "valueCode": "unknown"
          }
        ]
      },
      "name": "EPIC"
    }
  },
  {
    "active": true,
    "id": "d60db5d9aa7a0af8838eef6ccfdc964e",
    "identifier": [
      {
        "value": "EPIC"
      }
    ],
    "name": "Unknown",
    "resourceType": "Organization"
  },
  {
    "active": true,
    "id": "e98f3aed4caa8b1be587b89b74d12f6d",
    "identifier": [
      {
        "value": "EPI"
      }
    ],
    "name": "Unknown",
    "resourceType": "Organization"
  },
  {
    "active": true,
    "address": [
      {
        "country": "US"
      }
    ],
    "birthDate": "1992-01-23",
    "deceasedBoolean": false,
    "gender": "male",
    "id": "c93b2e114321a9801ced27c561181e3f",
    "identifier": [
      {
        "assigner": {
          "reference": "Organization/d60db5d9aa7a0af8838eef6ccfdc964e"
        },
        "system": "unknown",
        "type": {
          "coding": [
            {
              "code": "MRN",
              "system": "http://terminology.hl7.org/CodeSystem/v2-0203"
            }
          ]
        },
        "value": "E3947"
      },
      {
        "assigner": {
          "reference": "Organization/e98f3aed4caa8b1be587b89b74d12f6d"
        },
        "system": "unknown",
        "type": {
          "coding": [
            {
              "code": "MR",
              "system": "http://terminology.hl7.org/CodeSystem/v2-0203"
            }
          ]
        },
        "value": "203655"
      },
      {
        "system": "http://hl7.org/fhir/sid/us-ssn",
        "type": {
          "coding": [
            {
              "code": "SB",
              "system": "http://terminology.hl7.org/CodeSystem/v2-0203"
            }
          ]
        },
        "value": "987-65-4897"
      }
    ],
    "multipleBirthBoolean": false,
    "name": [
      {
        "family": "SUNNY",
        "given": [
          "KRIS"
        ],
        "use": "usual"
      }
    ],
    "resourceType": "Patient"
  },
  {
    "active": true,
    "id": "a721017f8d4db6f9dd8775d00fb96db8",
    "identifier": [
      {
        "value": "EHS"
      }
    ],
    "name": "Unknown",
    "resourceType": "Organization"
  },
  {
    "id": "5ebed7ffd4ed814753e33e3ff998d3cf",
    "identifier": [
      {
        "value": "EPIC"
      }
    ],
    "patient": {
      "reference": "Patient/c93b2e114321a9801ced27c561181e3f"
    },
    "resourceType": "Device",
    "type": {
      "coding": [
        {
          "code": "unknown"
        }
      ]
    }
  },
  {
    "id": "75792eb52be526ba732dd5cf14b23d5f",
    "identifier": [
      {
        "system": "unknown",
        "type": {
          "coding": [
            {
              "code": "AN",
              "system": "https://terminology.hl7.org/3.0.0/CodeSystem-v2-0203"
            }
          ],
          "text": "Account Number"
        },
        "value": "1001117"
      }
    ],
    "resourceType": "Account",
    "status": "active",
    "subject": [
      {
        "reference": "Patient/c93b2e114321a9801ced27c561181e3f"
      }
    ]
  },
  {
    "category": [
      {
        "coding": [
          {
            "code": "unknown"
          }
        ]
      }
    ],
    "code": {
      "coding": [
        {
          "code": "T45.511A",
          "display": "Poisoning by anticoagulants, accidental (unintentional), initial encounter",
          "system": "I10"
        }
      ],
      "text": "Poisoning by anticoagulants, accidental (unintentional), initial encounter"
    },
    "id": "03ef39ffce21f41465a3f1845558b2c2",
    "resourceType": "Condition",
    "subject": {
      "reference": "Patient/c93b2e114321a9801ced27c561181e3f"
    },
    "verificationStatus": {
      "coding": [
        {
          "code": "entered-in-error",
          "system": "http://terminology.hl7.org/CodeSystem/condition-ver-status"
        }
      ]
    }
  },
  {
    "id": "4b931fe87ee032e232b35efd05243014",
    "mode": "instance",
    "name": "409",
    "physicalType": {
      "coding": [
        {
          "code": "ro",
          "system": "http://terminology.hl7.org/CodeSystem/location-physical-type"
        }
      ]
    },
    "resourceType": "Location"
  },
  {
    "id": "f536b37eaa1b6372fb1d5a8280bb3726",
    "mode": "instance",
    "name": "409-01",
    "partOf": {
      "reference": "Location/4b931fe87ee032e232b35efd05243014"
    },
    "physicalType": {
      "coding": [
        {
          "code": "bd",
          "system": "http://terminology.hl7.org/CodeSystem/location-physical-type"
        }
      ]
    },
    "resourceType": "Location"
  },
  {
    "id": "13797166a3c9a171256e86d7d88d12ca",
    "identifier": [
      {
        "system": "unknown",
        "type": {
          "coding": [
            {
              "code": "PROVID"
            }
          ]
        },
        "value": "1001"
      }
    ],
    "name": [
      {
        "family": "INPATIENT",
        "given": [
          "ATTENDING",
          "PHYSICIAN"
        ]
      }
    ],
    "resourceType": "Practitioner"
  },
  {
    "id": "13797166a3c9a171256e86d7d88d12ca",
    "identifier": [
      {
        "system": "unknown",
        "type": {
          "coding": [
            {
              "code": "PROVID"
            }
          ]
        },
        "value": "1001"
      }
    ],
    "name": [
      {
        "family": "INPATIENT",
        "given": [
          "ATTENDING",
          "PHYSICIAN"
        ]
      }
    ],
    "resourceType": "Practitioner"
  },
  {
    "diagnosis": [
      {
        "condition": {
          "reference": "Condition/03ef39ffce21f41465a3f1845558b2c2"
        },
        "role": {
          "coding": [
            {
              "display": "A"
            }
          ]
        }
      }
    ],
    "id": "2147debed8255ac8b37b0031712c9ce3",
    "patient": {
      "reference": "Patient/c93b2e114321a9801ced27c561181e3f"
    },
    "resourceType": "EpisodeOfCare",
    "status": "finished"
  },
  {
    "class": {
      "code": "U",
      "display": "Unknown",
      "system": "http://terminology.hl7.org/CodeSystem/v2-0004",
      "version": "v1"
    },
    "diagnosis": [
      {
        "condition": {
          "reference": "Condition/03ef39ffce21f41465a3f1845558b2c2"
        },
        "use": {
          "coding": [
            {
              "display": "A"
            }
          ]
        }
      }
    ],
    "episodeOfCare": [
      {
        "reference": "EpisodeOfCare/2147debed8255ac8b37b0031712c9ce3"
      }
    ],
    "hospitalization": {
      "admitSource": {
        "coding": [
          {
            "code": "Non-Healthcr"
          }
        ]
      },
      "dischargeDisposition": {
        "coding": [
          {
            "code": "ADMITTED"
          }
        ]
      }
    },
    "id": "bf86955fcce0d7784a1e3e087b8713d4",
    "identifier": [
      {
        "system": "unknown",
        "type": {
          "coding": [
            {
              "code": "VN",
              "system": "http://terminology.hl7.org/CodeSystem/v2-0203"
            }
          ],
          "text": "visit number"
        },
        "value": "30620"
      }
    ],
    "location": [
      {
        "location": {
          "display": "409, 409-01",
          "reference": "Location/f536b37eaa1b6372fb1d5a8280bb3726"
        },
        "status": "active"
      }
    ],
    "participant": [
      {
        "individual": {
          "reference": "Practitioner/13797166a3c9a171256e86d7d88d12ca"
        },
        "type": [
          {
            "coding": [
              {
                "code": "ATND",
                "display": "attender",
                "system": "http://terminology.hl7.org/CodeSystem/v3-ParticipationType"
              }
            ]
          }
        ]
      },
      {
        "individual": {
          "reference": "Practitioner/13797166a3c9a171256e86d7d88d12ca"
        },
        "type": [
          {
            "coding": [
              {
                "code": "ADM",
                "display": "admitter",
                "system": "http://terminology.hl7.org/CodeSystem/v3-ParticipationType"
              }
            ]
          }
        ]
      }
    ],
    "period": {
      "end": "2017-04-26T14:22:00+00:00",
      "start": "2017-04-26T14:10:08+00:00"
    },
    "resourceType": "Encounter",
    "serviceType": {
      "coding": [
        {
          "code": "Emergency"
        }
      ]
    },
    "status": "finished",
    "subject": {
      "reference": "Patient/c93b2e114321a9801ced27c561181e3f"
    },
    "type": [
      {
        "coding": [
          {
            "code": "ER"
          }
        ]
      }
    ]
  },
  {
    "id": "00daed7849b4152e8c3922730b93401e",
    "identifier": [
      {
        "system": "unknown",
        "value": "ADTADM"
      }
    ],
    "name": [
      {
        "family": "ADT",
        "given": [
          "ADMIN"
        ]
      }
    ],
    "resourceType": "Practitioner"
  },
  {
    "active": true,
    "id": "a721017f8d4db6f9dd8775d00fb96db8",
    "identifier": [
      {
        "value": "EHS"
      }
    ],
    "name": "Unknown",
    "resourceType": "Organization"
  },
  {
    "activity": {
      "coding": [
        {
          "display": "event - :ADT^A13"
        }
      ]
    },
    "agent": [
      {
        "who": {
          "reference": "Practitioner/00daed7849b4152e8c3922730b93401e"
        }
      },
      {
        "who": {
          "reference": "Organization/a721017f8d4db6f9dd8775d00fb96db8"
        }
      }
    ],
    "id": "35c0b14a7c768188454b490db869fe27",
    "occurredDateTime": "2017-04-26T14:14:00+00:00",
    "reason": [
      {
        "coding": [
          {
            "code": "U",
            "display": "Unknown",
            "system": "HL70062",
            "version": "v1"
          }
        ]
      }
    ],
    "recorded": "2017-05-26T13:36:38.000+00:00",
    "resourceType": "Provenance",
    "target": [
      {
        "reference": "MessageHeader/76b4ffa899486546391c944594a53938"
      }
    ]
  },
  {
    "address": [
      {
        "country": "US"
      }
    ],
    "birthDate": "1992-01-23",
    "gender": "male",
    "id": "cd7d7fca0ca5a43a5473a9d6ba8dba3b",
    "name": [
      {
        "family": "SUNNY",
        "given": [
          "KRIS"
        ]
      }
    ],
    "patient": {
      "reference": "Patient/c93b2e114321a9801ced27c561181e3f"
    },
    "relationship": [
      {
        "coding": [
          {
            "code": "U",
            "display": "Unknown",
            "system": "http://terminology.hl7.org/CodeSystem/v2-0131",
            "version": "v1"
          }
        ]
      }
    ],
    "resourceType": "RelatedPerson"
  }
]
