[
  {
    "active": true,
    "id": "21d4f0ff0f61cb105e2954e7a5a44fc7",
    "identifier": [
      {
        "value": "GOOD HEALTH HOSPITAL"
      }
    ],
    "name": "Unknown",
    "resourceType": "Organization"
  },
  {
    "eventCoding": {
      "code": "A12",
      "display": "ADT^A12^ADT_A12",
      "system": "http://terminology.hl7.org/CodeSystem/v2-0003"
    },
    "id": "dec62b975397c4e01e82235dc0ef52ba",
    "meta": {
      "tag": [
        {
          "code": "P",
          "system": "http://terminology.hl7.org/CodeSystem/v2-0103"
        },
        {
          "system": "http://terminology.hl7.org/CodeSystem/v2-0207"
        }
      ]
    },
    "resourceType": "MessageHeader",
    "sender": {
      "reference": "Organization/21d4f0ff0f61cb105e2954e7a5a44fc7"
    },
    "source": {
      "endpoint": {
        "extension": [
          {
            "url": "http://hl7.org/fhir/R4/extension-data-absent-reason.html",
            "valueCode": "unknown"
          }
        ]
      },
      "name": "REGADT"
    }
  },
  {
    "active": true,
    "id": "21d4f0ff0f61cb105e2954e7a5a44fc7",
    "identifier": [
      {
        "value": "GOOD HEALTH HOSPITAL"
      }
    ],
    "name": "Unknown",
    "resourceType": "Organization"
  },
  {
    "active": true,
    "address": [
      {
        "city": "ISHPEMING",
        "line": [
          "2222 HOME STREET"
        ],
        "postalCode": "49849",
        "state": "MI"
      }
    ],
    "birthDate": "1956-01-29",
    "extension": [
      {
        "url": "http://hl7.org/fhir/StructureDefinition/patient-religion",
        "valueCodeableConcept": {
          "coding": [
            {
              "code": "C"
            }
          ]
        }
      }
    ],
    "gender": "male",
    "id": "6fe15cbd630d0f9449f8f2c3b32b329a",
    "identifier": [
      {
        "assigner": {
          "reference": "Organization/21d4f0ff0f61cb105e2954e7a5a44fc7"
        },
        "system": "unknown",
        "type": {
          "coding": [
            {
              "code": "MR",
              "system": "http://terminology.hl7.org/CodeSystem/v2-0203"
            }
          ]
        },
        "value": "191919"
      },
      {
        "system": "unknown",
        "type": {
          "coding": [
            {
              "code": "MR",
              "system": "http://terminology.hl7.org/CodeSystem/v2-0203"
            }
          ]
        },
        "value": "253763"
      },
      {
        "system": "http://hl7.org/fhir/sid/us-ssn",
        "type": {
          "coding": [
            {
              "code": "SB",
              "system": "http://terminology.hl7.org/CodeSystem/v2-0203"
            }
          ]
        },
        "value": "444-33-3333"
      }
    ],
    "maritalStatus": {
      "coding": [
        {
          "code": "S",
          "display": "Never Married",
          "system": "http://terminology.hl7.org/CodeSystem/v3-MaritalStatus",
          "version": "v1"
        }
      ]
    },
    "multipleBirthBoolean": false,
    "name": [
      {
        "family": "EVERYMAN",
        "given": [
          "ADAM",
          "A"
        ]
      }
    ],
    "resourceType": "Patient",
    "telecom": [
      {
        "system": {
          "extension": [
            {
              "url": "http://hl7.org/fhir/StructureDefinition/data-absent-reason",
              "valueCode": "unknown"
            }
          ]
        },
        "use": "home",
        "value": "555-555-2004"
      },
      {
        "system": {
          "extension": [
            {
              "url": "http://hl7.org/fhir/StructureDefinition/data-absent-reason",
              "valueCode": "unknown"
            }
          ]
        },
        "use": "work",
        "value": "555-555-2004"
      }
    ]
  },
  {
    "active": true,
    "id": "21d4f0ff0f61cb105e2954e7a5a44fc7",
    "identifier": [
      {
        "value": "GOOD HEALTH HOSPITAL"
      }
    ],
    "name": "Unknown",
    "resourceType": "Organization"
  },
  {
    "id": "7a95a99719452f2b32e9afb2efedcb5d",
    "identifier": [
      {
        "value": "REGADT"
      }
    ],
    "patient": {
      "reference": "Patient/6fe15cbd630d0f9449f8f2c3b32b329a"
    },
    "resourceType": "Device",
    "type": {
      "coding": [
        {
          "code": "unknown"
        }
      ]
    }
  },
  {
    "id": "e5b4d4dc50a0c2cc965b0dfb6ba2f802",
    "identifier": [
      {
        "system": "unknown",
        "type": {
          "coding": [
            {
              "code": "AN",
              "system": "https://terminology.hl7.org/3.0.0/CodeSystem-v2-0203"
            }
          ],
          "text": "Account Number"
        },
        "value": "10199925"
      }
    ],
    "resourceType": "Account",
    "status": "active",
    "subject": [
      {
        "reference": "Patient/6fe15cbd630d0f9449f8f2c3b32b329a"
      }
    ]
  },
  {
    "id": "92ad1d98636c99543b0621070990e727",
    "mode": "instance",
    "name": "GOOD HEALTH HOSPITAL",
    "physicalType": {
      "coding": [
        {
          "code": "si",
          "system": "http://terminology.hl7.org/CodeSystem/location-physical-type"
        }
      ]
    },
    "resourceType": "Location"
  },
  {
    "id": "7f324b6f3d71126fa6e2e60147a15ecc",
    "mode": "instance",
    "name": "6N",
    "partOf": {
      "reference": "Location/92ad1d98636c99543b0621070990e727"
    },
    "physicalType": {
      "coding": [
        {
          "code": "si",
          "system": "http://terminology.hl7.org/CodeSystem/location-physical-type"
        }
      ]
    },
    "resourceType": "Location"
  },
  {
    "id": "93c2bacd92847f96f8bf7a058f5f4d16",
    "mode": "instance",
    "name": "1234",
    "partOf": {
      "reference": "Location/7f324b6f3d71126fa6e2e60147a15ecc"
    },
    "physicalType": {
      "coding": [
        {
          "code": "ro",
          "system": "http://terminology.hl7.org/CodeSystem/location-physical-type"
        }
      ]
    },
    "resourceType": "Location"
  },
  {
    "id": "6e359500686d7ca46e83f3dbb5e50ec7",
    "mode": "instance",
    "name": "A",
    "partOf": {
      "reference": "Location/93c2bacd92847f96f8bf7a058f5f4d16"
    },
    "physicalType": {
      "coding": [
        {
          "code": "bd",
          "system": "http://terminology.hl7.org/CodeSystem/location-physical-type"
        }
      ]
    },
    "resourceType": "Location"
  },
  {
    "id": "92ad1d98636c99543b0621070990e727",
    "mode": "instance",
    "name": "GOOD HEALTH HOSPITAL",
    "physicalType": {
      "coding": [
        {
          "code": "si",
          "system": "http://terminology.hl7.org/CodeSystem/location-physical-type"
        }
      ]
    },
    "resourceType": "Location"
  },
  {
    "id": "922a175e3a567f3dd374ec791ee19d24",
    "mode": "instance",
    "name": "SICU",
    "partOf": {
      "reference": "Location/92ad1d98636c99543b0621070990e727"
    },
    "physicalType": {
      "coding": [
        {
          "code": "si",
          "system": "http://terminology.hl7.org/CodeSystem/location-physical-type"
        }
      ]
    },
    "resourceType": "Location"
  },
  {
    "id": "ac948498a787bdf739afc91b6b93fa20",
    "mode": "instance",
    "name": "0001",
    "partOf": {
      "reference": "Location/922a175e3a567f3dd374ec791ee19d24"
    },
    "physicalType": {
      "coding": [
        {
          "code": "ro",
          "system": "http://terminology.hl7.org/CodeSystem/location-physical-type"
        }
      ]
    },
    "resourceType": "Location"
  },
  {
    "id": "56c7887872416a75963264cd4e0f407d",
    "mode": "instance",
    "name": "1",
    "partOf": {
      "reference": "Location/ac948498a787bdf739afc91b6b93fa20"
    },
    "physicalType": {
      "coding": [
        {
          "code": "bd",
          "system": "http://terminology.hl7.org/CodeSystem/location-physical-type"
        }
      ]
    },
    "resourceType": "Location"
  },
  {
    "id": "c243d28d12e8f450635e0e6f7e24a30e",
    "identifier": [
      {
        "system": "unknown",
        "value": "0100"
      }
    ],
    "name": [
      {
        "family": "ATTEND",
        "given": [
          "AARON",
          "A"
        ]
      }
    ],
    "resourceType": "Practitioner"
  },
  {
    "id": "9f9e263bdab975b179a1ff9935dc2547",
    "identifier": [
      {
        "system": "unknown",
        "value": "0148"
      }
    ],
    "name": [
      {
        "family": "ATTEND",
        "given": [
          "AARON",
          "A"
        ]
      }
    ],
    "resourceType": "Practitioner"
  },
  {
    "id": "9f9e263bdab975b179a1ff9935dc2547",
    "identifier": [
      {
        "system": "unknown",
        "value": "0148"
      }
    ],
    "name": [
      {
        "family": "ATTEND",
        "given": [
          "AARON",
          "A"
        ]
      }
    ],
    "resourceType": "Practitioner"
  },
  {
    "class": {
      "code": "IMP",
      "display": "inpatient encounter",
      "system": "http://terminology.hl7.org/CodeSystem/v3-ActCode",
      "version": "v1"
    },
    "id": "e6ee55c1444f9c88c31b13d45328ccbb",
    "identifier": [
      {
        "system": "unknown",
        "type": {
          "coding": [
            {
              "code": "VN",
              "system": "http://terminology.hl7.org/CodeSystem/v2-0203"
            }
          ],
          "text": "visit number"
        },
        "value": "1400"
      }
    ],
    "location": [
      {
        "location": {
          "display": "GOOD HEALTH HOSPITAL, 6N, 1234, A",
          "reference": "Location/6e359500686d7ca46e83f3dbb5e50ec7"
        },
        "status": "active"
      },
      {
        "location": {
          "display": "GOOD HEALTH HOSPITAL, SICU, 0001, 1",
          "reference": "Location/56c7887872416a75963264cd4e0f407d"
        },
        "status": "completed"
      }
    ],
    "participant": [
      {
        "individual": {
          "reference": "Practitioner/c243d28d12e8f450635e0e6f7e24a30e"
        },
        "type": [
          {
            "coding": [
              {
                "code": "ATND",
                "display": "attender",
                "system": "http://terminology.hl7.org/CodeSystem/v3-ParticipationType"
              }
            ]
          }
        ]
      },
      {
        "individual": {
          "reference": "Practitioner/9f9e263bdab975b179a1ff9935dc2547"
        },
        "type": [
          {
            "coding": [
              {
                "code": "REF",
                "display": "referrer",
                "system": "http://terminology.hl7.org/CodeSystem/v3-ParticipationType"
              }
            ]
          }
        ]
      },
      {
        "individual": {
          "reference": "Practitioner/9f9e263bdab975b179a1ff9935dc2547"
        },
        "type": [
          {
            "coding": [
              {
                "code": "ADM",
                "display": "admitter",
                "system": "http://terminology.hl7.org/CodeSystem/v3-ParticipationType"
              }
            ]
          }
        ]
      }
    ],
    "period": {
      "start": "2007-01-10T23:00:00+00:00"
    },
    "resourceType": "Encounter",
    "serviceType": {
      "coding": [
        {
          "code": "SUR"
        }
      ]
    },
    "status": "finished",
    "subject": {
      "reference": "Patient/6fe15cbd630d0f9449f8f2c3b32b329a"
    },
    "type": [
      {
        "coding": [
          {
            "code": "unknown"
          }
        ]
      }
    ]
  },
  {
    "active": true,
    "id": "21d4f0ff0f61cb105e2954e7a5a44fc7",
    "identifier": [
      {
        "value": "GOOD HEALTH HOSPITAL"
      }
    ],
    "name": "Unknown",
    "resourceType": "Organization"
  }
]
