[
  {
    "active": true,
    "id": "4962c005d08890b7dd08472384a57e51",
    "identifier": [
      {
        "value": "NIST EHR Facility"
      }
    ],
    "name": "Unknown",
    "resourceType": "Organization"
  },
  {
    "active": true,
    "id": "31c866225f4115cb396e018ef66d0dfe",
    "identifier": [
      {
        "value": "NIST Lab Facility"
      }
    ],
    "name": "Unknown",
    "resourceType": "Organization"
  },
  {
    "destination": [
      {
        "endpoint": {
          "extension": [
            {
              "url": "http://hl7.org/fhir/R4/extension-data-absent-reason.html",
              "valueCode": "unknown"
            }
          ]
        },
        "name": "NIST Test Lab APP",
        "receiver": {
          "reference": "Organization/31c866225f4115cb396e018ef66d0dfe"
        }
      }
    ],
    "eventCoding": {
      "code": "O21",
      "display": "OML^O21^OML_O21",
      "system": "http://terminology.hl7.org/CodeSystem/v2-0003"
    },
    "id": "bfa35f63106f702954e1cc2905881c44",
    "meta": {
      "tag": [
        {
          "code": "T",
          "system": "http://terminology.hl7.org/CodeSystem/v2-0103"
        },
        {
          "system": "http://terminology.hl7.org/CodeSystem/v2-0207"
        }
      ]
    },
    "resourceType": "MessageHeader",
    "sender": {
      "reference": "Organization/4962c005d08890b7dd08472384a57e51"
    },
    "source": {
      "endpoint": {
        "extension": [
          {
            "url": "http://hl7.org/fhir/R4/extension-data-absent-reason.html",
            "valueCode": "unknown"
          }
        ]
      },
      "name": "NIST EHR"
    }
  },
  {
    "active": true,
    "id": "64855ad0e0c53e812e0c814118be02bf",
    "identifier": [
      {
        "value": "NIST MPI"
      }
    ],
    "name": "Unknown",
    "resourceType": "Organization"
  },
  {
    "active": true,
    "address": [
      {
        "city": "Los Angeles",
        "line": [
          "144 East 12th Street"
        ],
        "postalCode": "90012",
        "state": "CA",
        "use": "home"
      }
    ],
    "birthDate": "1982-03-04",
    "contact": [
      {
        "address": {
          "city": "Los Angeles",
          "line": [
            "144 East 12th Street"
          ],
          "postalCode": "90012",
          "state": "CA",
          "use": "home"
        },
        "name": {
          "family": "Wilson",
          "given": [
            "Phillip",
            "Arthur"
          ],
          "use": "official"
        }
      }
    ],
    "extension": [
      {
        "extension": [
          {
            "url": "text",
            "valueString": "White"
          },
          {
            "url": "ombCategory",
            "valueCoding": {
              "code": "2106-3",
              "display": "White",
              "system": "HL70005"
            }
          }
        ],
        "url": "http://hl7.org/fhir/us/core/StructureDefinition/us-core-race"
      },
      {
        "extension": [
          {
            "url": "text",
            "valueString": "Not Hispanic or Latino"
          },
          {
            "url": "ombCategory",
            "valueCoding": {
              "code": "N",
              "display": "Not Hispanic or Latino",
              "system": "HL70189"
            }
          }
        ],
        "url": "http://hl7.org/fhir/us/core/StructureDefinition/us-core-ethnicity"
      }
    ],
    "gender": "female",
    "id": "f73b70dccdec09baff02fab5dc8b9cd2",
    "identifier": [
      {
        "assigner": {
          "reference": "Organization/64855ad0e0c53e812e0c814118be02bf"
        },
        "system": "unknown",
        "type": {
          "coding": [
            {
              "code": "MR",
              "system": "http://terminology.hl7.org/CodeSystem/v2-0203"
            }
          ]
        },
        "value": "PATID5421"
      }
    ],
    "multipleBirthBoolean": false,
    "name": [
      {
        "family": "Wilson",
        "given": [
          "Patrice",
          "Natasha"
        ],
        "use": "official"
      }
    ],
    "resourceType": "Patient"
  },
  {
    "active": true,
    "id": "4962c005d08890b7dd08472384a57e51",
    "identifier": [
      {
        "value": "NIST EHR Facility"
      }
    ],
    "name": "Unknown",
    "resourceType": "Organization"
  },
  {
    "id": "94a3b187cfc81fc7c4426b3971735975",
    "identifier": [
      {
        "value": "NIST EHR"
      }
    ],
    "patient": {
      "reference": "Patient/f73b70dccdec09baff02fab5dc8b9cd2"
    },
    "resourceType": "Device",
    "type": {
      "coding": [
        {
          "code": "unknown"
        }
      ]
    }
  },
  {
    "address": [
      {
        "city": "Los Angeles",
        "line": [
          "144 East 12th Street"
        ],
        "postalCode": "90012",
        "state": "CA",
        "use": "home"
      }
    ],
    "id": "1ff5ba2880f095194f36ac6df57702cb",
    "name": [
      {
        "family": "Wilson",
        "given": [
          "Phillip",
          "Arthur"
        ],
        "use": "official"
      }
    ],
    "patient": {
      "reference": "Patient/f73b70dccdec09baff02fab5dc8b9cd2"
    },
    "relationship": [
      {
        "coding": [
          {
            "code": "SPS",
            "display": "spouse",
            "system": "http://terminology.hl7.org/CodeSystem/v3-RoleCode",
            "version": "v1"
          },
          {
            "code": "U",
            "display": "Unknown",
            "system": "http://terminology.hl7.org/CodeSystem/v2-0131",
            "version": "v1"
          }
        ]
      }
    ],
    "resourceType": "RelatedPerson"
  },
  {
    "category": [
      {
        "coding": [
          {
            "code": "unknown"
          }
        ]
      }
    ],
    "code": {
      "coding": [
        {
          "code": "F11.129",
          "display": "Opioid abuse with intoxication,unspecified",
          "system": "I10C"
        }
      ]
    },
    "id": "3df9b11331980fad4ab3ad0a92d5d89d",
    "resourceType": "Condition",
    "subject": {
      "reference": "Patient/f73b70dccdec09baff02fab5dc8b9cd2"
    },
    "verificationStatus": {
      "coding": [
        {
          "code": "entered-in-error",
          "system": "http://terminology.hl7.org/CodeSystem/condition-ver-status"
        }
      ]
    }
  },
  {
    "collection": {
      "collectedDateTime": "2012-06-28T07:01:00+00:00"
    },
    "id": "102539127ab227b577fb599bc6a59457",
    "resourceType": "Specimen",
    "subject": {
      "reference": "Patient/f73b70dccdec09baff02fab5dc8b9cd2"
    }
  },
  {
    "id": "ef59b26e85eca7981a8933101ca07a87",
    "identifier": [
      {
        "system": "unknown",
        "type": {
          "coding": [
            {
              "code": "NPI"
            }
          ]
        },
        "value": "5742200012"
      }
    ],
    "name": [
      {
        "family": "Radon",
        "given": [
          "Nicholas"
        ],
        "use": "official"
      }
    ],
    "resourceType": "Practitioner"
  },
  {
    "authoredOn": "2012-06-28T07:01:00+00:00",
    "code": {
      "coding": [
        {
          "code": "1000",
          "display": "Hepatitis A  B  C Panel",
          "system": "99USL"
        }
      ]
    },
    "id": "795cba16073279edbd320a4c61dbc848",
    "identifier": [
      {
        "type": {
          "coding": [
            {
              "code": "PLAC",
              "system": "http://terminology.hl7.org/CodeSystem/v2-0203"
            }
          ]
        },
        "value": "ORD448811"
      }
    ],
    "intent": "order",
    "reasonReference": [
      {
        "reference": "Condition/3df9b11331980fad4ab3ad0a92d5d89d"
      }
    ],
    "requester": {
      "reference": "Practitioner/ef59b26e85eca7981a8933101ca07a87"
    },
    "resourceType": "ServiceRequest",
    "status": "unknown",
    "subject": {
      "reference": "Patient/f73b70dccdec09baff02fab5dc8b9cd2"
    }
  },
  {
    "id": "ef59b26e85eca7981a8933101ca07a87",
    "identifier": [
      {
        "system": "unknown",
        "type": {
          "coding": [
            {
              "code": "NPI"
            }
          ]
        },
        "value": "5742200012"
      }
    ],
    "name": [
      {
        "family": "Radon",
        "given": [
          "Nicholas"
        ],
        "use": "official"
      }
    ],
    "resourceType": "Practitioner"
  },
  {
    "activity": {
      "coding": [
        {
          "code": "CREATE",
          "display": "create",
          "system": "http://terminology.hl7.org/CodeSystem/v3-DataOperation",
          "version": "v1"
        }
      ]
    },
    "agent": [
      {
        "type": {
          "coding": [
            {
              "code": "author",
              "system": "http://terminology.hl7.org/CodeSystem/provenance-participant-type"
            }
          ]
        },
        "who": {
          "reference": "Practitioner/ef59b26e85eca7981a8933101ca07a87"
        }
      }
    ],
    "id": "14b96147bbeef54e2d6571de1f4137c6",
    "occurredDateTime": "2012-06-28T07:01:00+00:00",
    "recorded": "2012-06-28T07:01:00.000+00:00",
    "resourceType": "Provenance",
    "target": [
      {
        "reference": "ServiceRequest/795cba16073279edbd320a4c61dbc848"
      }
    ]
  }
]
