[
  {
    "active": true,
    "id": "0b07444ca36ab4e264511a19e87d0a84",
    "identifier": [
      {
        "value": "DrSmith"
      }
    ],
    "name": "Unknown",
    "resourceType": "Organization"
  },
  {
    "active": true,
    "id": "3eeea1f066ed1ee52fda469c94788afa",
    "identifier": [
      {
        "value": "PAML"
      }
    ],
    "name": "Unknown",
    "resourceType": "Organization"
  },
  {
    "destination": [
      {
        "endpoint": {
          "extension": [
            {
              "url": "http://hl7.org/fhir/R4/extension-data-absent-reason.html",
              "valueCode": "unknown"
            }
          ]
        },
        "name": "1101",
        "receiver": {
          "reference": "Organization/3eeea1f066ed1ee52fda469c94788afa"
        }
      }
    ],
    "eventCoding": {
      "code": "O01",
      "display": "ORM^O01^ORM_O01",
      "system": "http://terminology.hl7.org/CodeSystem/v2-0003"
    },
    "id": "ec74c8484a9f1fceb4bfca7c6e88deaf",
    "meta": {
      "tag": [
        {
          "code": "P",
          "system": "http://terminology.hl7.org/CodeSystem/v2-0103"
        },
        {
          "system": "http://terminology.hl7.org/CodeSystem/v2-0207"
        }
      ]
    },
    "resourceType": "MessageHeader",
    "sender": {
      "reference": "Organization/0b07444ca36ab4e264511a19e87d0a84"
    },
    "source": {
      "endpoint": {
        "extension": [
          {
            "url": "http://hl7.org/fhir/R4/extension-data-absent-reason.html",
            "valueCode": "unknown"
          }
        ]
      },
      "name": "7000"
    }
  },
  {
    "active": true,
    "address": [
      {
        "city": "Spokane",
        "line": [
          "1234 Here Street"
        ],
        "postalCode": "99202",
        "state": "WA"
      }
    ],
    "birthDate": "1970-01-01",
    "gender": "male",
    "id": "26e7758f9b59559067cfdd89cf340a68",
    "identifier": [
      {
        "system": "unknown",
        "value": "0123456789"
      }
    ],
    "multipleBirthBoolean": false,
    "name": [
      {
        "family": "PATIENT01",
        "given": [
          "TEST"
        ]
      }
    ],
    "resourceType": "Patient",
    "telecom": [
      {
        "system": "email",
        "use": "home",
        "value": "(509) 555-1212"
      }
    ]
  },
  {
    "active": true,
    "id": "0b07444ca36ab4e264511a19e87d0a84",
    "identifier": [
      {
        "value": "DrSmith"
      }
    ],
    "name": "Unknown",
    "resourceType": "Organization"
  },
  {
    "id": "b862306def96f89a7cb3b186133e3bfd",
    "identifier": [
      {
        "value": "7000"
      }
    ],
    "patient": {
      "reference": "Patient/26e7758f9b59559067cfdd89cf340a68"
    },
    "resourceType": "Device",
    "type": {
      "coding": [
        {
          "code": "unknown"
        }
      ]
    }
  },
  {
    "category": [
      {
        "coding": [
          {
            "code": "unknown"
          }
        ]
      }
    ],
    "code": {
      "coding": [
        {
          "code": "700",
          "display": "Diagnosis Description",
          "system": "I9C"
        }
      ]
    },
    "id": "566aea0492656c087e795075148433b2",
    "resourceType": "Condition",
    "subject": {
      "reference": "Patient/26e7758f9b59559067cfdd89cf340a68"
    },
    "verificationStatus": {
      "coding": [
        {
          "code": "entered-in-error",
          "system": "http://terminology.hl7.org/CodeSystem/condition-ver-status"
        }
      ]
    }
  },
  {
    "id": "12d727ccf5cf9f5398935df96c897d70",
    "mode": "instance",
    "name": "DrSmith",
    "physicalType": {
      "coding": [
        {
          "code": "si",
          "system": "http://terminology.hl7.org/CodeSystem/location-physical-type"
        }
      ]
    },
    "resourceType": "Location"
  },
  {
    "id": "3a916820deaca2dd4540e5dd47f26cc8",
    "mode": "instance",
    "name": "Building1",
    "partOf": {
      "reference": "Location/12d727ccf5cf9f5398935df96c897d70"
    },
    "physicalType": {
      "coding": [
        {
          "code": "bu",
          "system": "http://terminology.hl7.org/CodeSystem/location-physical-type"
        }
      ]
    },
    "resourceType": "Location"
  },
  {
    "diagnosis": [
      {
        "condition": {
          "reference": "Condition/566aea0492656c087e795075148433b2"
        },
        "rank": 1,
        "role": {
          "coding": [
            {
              "code": "F"
            }
          ]
        }
      }
    ],
    "id": "5135a7ceb8d834079ad2c95f466f1ee0",
    "patient": {
      "reference": "Patient/26e7758f9b59559067cfdd89cf340a68"
    },
    "resourceType": "EpisodeOfCare",
    "status": "finished"
  },
  {
    "class": {
      "code": "AMB"
    },
    "diagnosis": [
      {
        "condition": {
          "reference": "Condition/566aea0492656c087e795075148433b2"
        },
        "rank": 1,
        "use": {
          "coding": [
            {
              "code": "F"
            }
          ]
        }
      }
    ],
    "episodeOfCare": [
      {
        "reference": "EpisodeOfCare/5135a7ceb8d834079ad2c95f466f1ee0"
      }
    ],
    "id": "5b6c8fbdb2f398567e0feaacbad6a353",
    "location": [
      {
        "location": {
          "display": "DrSmith, Building1",
          "reference": "Location/3a916820deaca2dd4540e5dd47f26cc8"
        },
        "status": "active"
      }
    ],
    "resourceType": "Encounter",
    "status": "finished",
    "subject": {
      "reference": "Patient/26e7758f9b59559067cfdd89cf340a68"
    },
    "type": [
      {
        "coding": [
          {
            "code": "unknown"
          }
        ]
      }
    ]
  },
  {
    "address": [
      {
        "city": "Spokane",
        "line": [
          "1234 Here Street"
        ],
        "postalCode": "99202",
        "state": "WA"
      }
    ],
    "id": "f7aad516aec6895dc079b02437f706a8",
    "name": [
      {
        "family": "PATIENT01",
        "given": [
          "TEST"
        ]
      }
    ],
    "patient": {
      "reference": "Patient/26e7758f9b59559067cfdd89cf340a68"
    },
    "resourceType": "RelatedPerson"
  },
  {
    "active": true,
    "address": [
      {
        "city": "Spokane",
        "line": [
          "123 Ins Way"
        ],
        "postalCode": "99202",
        "state": "WA"
      }
    ],
    "id": "22083abd6196bdb3157e62b7e15cb1c5",
    "name": "Insurance Company, Inc.",
    "resourceType": "Organization"
  },
  {
    "active": true,
    "id": "f19b831f08d461eae762be9d7734e8d3",
    "name": "Worldwide Widgets",
    "resourceType": "Organization"
  },
  {
    "beneficiary": {
      "reference": "Patient/26e7758f9b59559067cfdd89cf340a68"
    },
    "class": [
      {
        "type": {
          "coding": [
            {
              "code": "group",
              "system": "http://hl7.org/fhir/ValueSet/coverage-class"
            }
          ]
        },
        "value": "GROUP1234"
      },
      {
        "type": {
          "coding": [
            {
              "code": "group",
              "system": "http://hl7.org/fhir/ValueSet/coverage-class"
            }
          ]
        },
        "value": "Worldwide Widgets"
      }
    ],
    "id": "4828964c2d50092bdd35e02ca0b19bdd",
    "identifier": [
      {
        "type": {
          "text": "Insurance Plan Id"
        },
        "value": "PLANID"
      }
    ],
    "order": 1,
    "payor": [
      {
        "reference": "Organization/22083abd6196bdb3157e62b7e15cb1c5"
      }
    ],
    "period": {
      "end": "2014-10-01T00:00:00+00:00"
    },
    "policyHolder": {
      "reference": "Organization/f19b831f08d461eae762be9d7734e8d3"
    },
    "relationship": {
      "coding": [
        {
          "code": "ONESELF",
          "display": "self",
          "system": "http://terminology.hl7.org/CodeSystem/v3-RoleCode",
          "version": "v1"
        },
        {
          "code": "U",
          "display": "Unknown",
          "system": "http://terminology.hl7.org/CodeSystem/v2-0131",
          "version": "v1"
        }
      ]
    },
    "resourceType": "Coverage",
    "status": "active",
    "subscriber": {
      "reference": "Patient/26e7758f9b59559067cfdd89cf340a68"
    }
  },
  {
    "category": [
      {
        "coding": [
          {
            "code": "laboratory",
            "system": "http://terminology.hl7.org/CodeSystem/observation-category"
          }
        ]
      }
    ],
    "code": {
      "coding": [
        {
          "code": "99199.Z56",
          "display": "Specimen Source",
          "system": "simulated-hospital"
        }
      ]
    },
    "id": "2c907231dec8fd4799663f37876f58d1",
    "issued": "2009-08-07T06:05:04.321+00:00",
    "resourceType": "Observation",
    "status": "final",
    "subject": {
      "reference": "Patient/26e7758f9b59559067cfdd89cf340a68"
    },
    "valueString": "AOE Value"
  },
  {
    "id": "43fe7e9f42b51d253df1d40b4913c89f",
    "identifier": [
      {
        "system": "unknown",
        "value": "1234567890"
      }
    ],
    "name": [
      {
        "family": "unknown"
      }
    ],
    "resourceType": "Practitioner"
  },
  {
    "authoredOn": "2013-06-07T10:34:21+00:00",
    "code": {
      "coding": [
        {
          "code": "80100.DA33",
          "display": "DAT Apolipoprotein A"
        }
      ]
    },
    "id": "67458e9b8a90efec9e4cd0e2628dfd70",
    "identifier": [
      {
        "type": {
          "coding": [
            {
              "code": "PLAC",
              "system": "http://terminology.hl7.org/CodeSystem/v2-0203"
            }
          ]
        },
        "value": "123456"
      }
    ],
    "intent": "order",
    "priority": "routine",
    "requester": {
      "reference": "Practitioner/43fe7e9f42b51d253df1d40b4913c89f"
    },
    "resourceType": "ServiceRequest",
    "status": "unknown",
    "subject": {
      "reference": "Patient/26e7758f9b59559067cfdd89cf340a68"
    }
  }
]
