[
  {
    "active": true,
    "id": "522aef6d782cf99c47ab46ce6b13bdc5",
    "identifier": [
      {
        "value": "SITE"
      }
    ],
    "name": "Unknown",
    "resourceType": "Organization"
  },
  {
    "active": true,
    "id": "522aef6d782cf99c47ab46ce6b13bdc5",
    "identifier": [
      {
        "value": "SITE"
      }
    ],
    "name": "Unknown",
    "resourceType": "Organization"
  },
  {
    "destination": [
      {
        "endpoint": {
          "extension": [
            {
              "url": "http://hl7.org/fhir/R4/extension-data-absent-reason.html",
              "valueCode": "unknown"
            }
          ]
        },
        "name": "EPIC",
        "receiver": {
          "reference": "Organization/522aef6d782cf99c47ab46ce6b13bdc5"
        }
      }
    ],
    "eventCoding": {
      "code": "O17",
      "display": "RAS^O17^",
      "system": "http://terminology.hl7.org/CodeSystem/v2-0003"
    },
    "id": "652d68d7e608ad034e6be6c1b68ca128",
    "meta": {
      "tag": [
        {
          "code": "P",
          "system": "http://terminology.hl7.org/CodeSystem/v2-0103"
        },
        {
          "system": "http://terminology.hl7.org/CodeSystem/v2-0207"
        }
      ]
    },
    "resourceType": "MessageHeader",
    "sender": {
      "reference": "Organization/522aef6d782cf99c47ab46ce6b13bdc5"
    },
    "source": {
      "endpoint": {
        "extension": [
          {
            "url": "http://hl7.org/fhir/R4/extension-data-absent-reason.html",
            "valueCode": "unknown"
          }
        ]
      },
      "name": "EXTERNAL"
    }
  },
  {
    "active": true,
    "id": "d60db5d9aa7a0af8838eef6ccfdc964e",
    "identifier": [
      {
        "value": "EPIC"
      }
    ],
    "name": "Unknown",
    "resourceType": "Organization"
  },
  {
    "active": true,
    "birthDate": "1978-03-22",
    "gender": "male",
    "id": "bf616593f952cfd258f42a4d7844baf2",
    "identifier": [
      {
        "assigner": {
          "reference": "Organization/d60db5d9aa7a0af8838eef6ccfdc964e"
        },
        "system": "unknown",
        "type": {
          "coding": [
            {
              "code": "MRN",
              "system": "http://terminology.hl7.org/CodeSystem/v2-0203"
            }
          ]
        },
        "value": "12345"
      }
    ],
    "multipleBirthBoolean": false,
    "name": [
      {
        "family": "DOE",
        "given": [
          "JOHN",
          "J"
        ]
      }
    ],
    "resourceType": "Patient"
  },
  {
    "active": true,
    "id": "522aef6d782cf99c47ab46ce6b13bdc5",
    "identifier": [
      {
        "value": "SITE"
      }
    ],
    "name": "Unknown",
    "resourceType": "Organization"
  },
  {
    "id": "80c74555513900d65d41aafd836069df",
    "identifier": [
      {
        "value": "EXTERNAL"
      }
    ],
    "patient": {
      "reference": "Patient/bf616593f952cfd258f42a4d7844baf2"
    },
    "resourceType": "Device",
    "type": {
      "coding": [
        {
          "code": "unknown"
        }
      ]
    }
  },
  {
    "class": {
      "code": "AMB"
    },
    "id": "6e155c6bc2cf91106f80b9e42f8c2e74",
    "identifier": [
      {
        "system": "unknown",
        "type": {
          "coding": [
            {
              "code": "VN",
              "system": "http://terminology.hl7.org/CodeSystem/v2-0203"
            }
          ],
          "text": "visit number"
        },
        "value": "11234581321"
      }
    ],
    "resourceType": "Encounter",
    "status": "finished",
    "subject": {
      "reference": "Patient/bf616593f952cfd258f42a4d7844baf2"
    },
    "type": [
      {
        "coding": [
          {
            "code": "unknown"
          }
        ]
      }
    ]
  },
  {
    "id": "9768441684529c00a88ccc6a7a1cd267",
    "identifier": [
      {
        "system": "unknown",
        "type": {
          "coding": [
            {
              "code": "SER"
            }
          ]
        },
        "value": "033171"
      }
    ],
    "name": [
      {
        "family": "SEEGER",
        "given": [
          "MARTY"
        ]
      }
    ],
    "resourceType": "Practitioner"
  },
  {
    "dosageInstruction": [
      {
        "timing": {
          "repeat": {
            "boundsPeriod": {
              "end": "2009-07-18T14:30:00+00:00",
              "start": "2009-07-17T14:00:00+00:00"
            }
          }
        }
      }
    ],
    "id": "4bea37cb016d405ab213e571f27f5692",
    "identifier": [
      {
        "type": {
          "coding": [
            {
              "code": "FILL",
              "system": "http://terminology.hl7.org/CodeSystem/v2-0203"
            }
          ]
        },
        "value": "57432"
      }
    ],
    "intent": "original-order",
    "medicationCodeableConcept": {
      "text": "unknown"
    },
    "performer": {
      "reference": "Practitioner/9768441684529c00a88ccc6a7a1cd267"
    },
    "resourceType": "MedicationRequest",
    "status": "unknown",
    "subject": {
      "reference": "Patient/bf616593f952cfd258f42a4d7844baf2"
    }
  },
  {
    "id": "9768441684529c00a88ccc6a7a1cd267",
    "identifier": [
      {
        "system": "unknown",
        "type": {
          "coding": [
            {
              "code": "SER"
            }
          ]
        },
        "value": "033171"
      }
    ],
    "name": [
      {
        "family": "SEEGER",
        "given": [
          "MARTY"
        ]
      }
    ],
    "resourceType": "Practitioner"
  },
  {
    "code": {
      "coding": [
        {
          "code": "ACE325",
          "display": "Tylenol 325 Tab Oral",
          "system": "EXTMED"
        }
      ]
    },
    "id": "8ad3af9da5580c9ec1bbb605dcf54cce",
    "resourceType": "Medication"
  },
  {
    "context": {
      "reference": "Encounter/6e155c6bc2cf91106f80b9e42f8c2e74"
    },
    "id": "68c5c65ddeb7e28e9a1d6e71a5d460c2",
    "identifier": [
      {
        "type": {
          "coding": [
            {
              "code": "FILL",
              "system": "http://terminology.hl7.org/CodeSystem/v2-0203"
            }
          ]
        },
        "value": "57432"
      }
    ],
    "medicationReference": {
      "reference": "Medication/8ad3af9da5580c9ec1bbb605dcf54cce"
    },
    "performer": [
      {
        "actor": {
          "reference": "Practitioner/9768441684529c00a88ccc6a7a1cd267"
        },
        "function": {
          "coding": [
            {
              "code": "OP",
              "system": "http://terminology.hl7.org/CodeSystem/v2-0443"
            }
          ]
        }
      }
    ],
    "request": {
      "reference": "MedicationRequest/4bea37cb016d405ab213e571f27f5692"
    },
    "resourceType": "MedicationAdministration",
    "status": "completed",
    "subject": {
      "reference": "Patient/bf616593f952cfd258f42a4d7844baf2"
    }
  }
]
