[
  {
    "destination": [
      {
        "endpoint": {
          "extension": [
            {
              "url": "http://hl7.org/fhir/StructureDefinition/data-absent-reason",
              "valueCode": "unknown"
            }
          ]
        }
      }
    ],
    "eventCoding": {
      "code": "O01",
      "display": "RDE^O01^",
      "system": "http://terminology.hl7.org/CodeSystem/v2-0003"
    },
    "id": "e6603f3e77fdc6f4613232960cd2b841",
    "meta": {
      "security": [
        {
          "code": "1"
        }
      ],
      "tag": [
        {
          "system": "http://terminology.hl7.org/CodeSystem/v2-0103"
        },
        {
          "system": "http://terminology.hl7.org/CodeSystem/v2-0207"
        }
      ]
    },
    "resourceType": "MessageHeader",
    "source": {
      "endpoint": {
        "extension": [
          {
            "url": "http://hl7.org/fhir/StructureDefinition/data-absent-reason",
            "valueCode": "unknown"
          }
        ]
      }
    }
  },
  {
    "active": true,
    "id": "e98f3aed4caa8b1be587b89b74d12f6d",
    "identifier": [
      {
        "value": "EPI"
      }
    ],
    "name": "Unknown",
    "resourceType": "Organization"
  },
  {
    "active": true,
    "communication": [
      {
        "language": {
          "coding": [
            {
              "code": "ENGLISH"
            }
          ]
        },
        "preferred": true
      }
    ],
    "gender": "male",
    "id": "5c570d5b4593dd8da0a1de475f6af32a",
    "identifier": [
      {
        "assigner": {
          "reference": "Organization/e98f3aed4caa8b1be587b89b74d12f6d"
        },
        "system": "unknown",
        "type": {
          "coding": [
            {
              "code": "EPI",
              "system": "http://terminology.hl7.org/CodeSystem/v2-0203"
            }
          ]
        },
        "value": "101105"
      }
    ],
    "multipleBirthBoolean": false,
    "name": [
      {
        "family": "JONES",
        "given": [
          "ANDREW"
        ]
      }
    ],
    "resourceType": "Patient"
  },
  {
    "id": "6609928062fc9d29b94393279265a212",
    "identifier": [
      {
        "system": "unknown",
        "type": {
          "coding": [
            {
              "code": "AN",
              "system": "https://terminology.hl7.org/3.0.0/CodeSystem-v2-0203"
            }
          ],
          "text": "Account Number"
        },
        "value": "10000829306"
      }
    ],
    "resourceType": "Account",
    "status": "active",
    "subject": [
      {
        "reference": "Patient/5c570d5b4593dd8da0a1de475f6af32a"
      }
    ]
  },
  {
    "id": "12d727ccf5cf9f5398935df96c897d70",
    "mode": "instance",
    "name": "DrSmith",
    "physicalType": {
      "coding": [
        {
          "code": "si",
          "system": "http://terminology.hl7.org/CodeSystem/location-physical-type"
        }
      ]
    },
    "resourceType": "Location"
  },
  {
    "id": "3a916820deaca2dd4540e5dd47f26cc8",
    "mode": "instance",
    "name": "Building1",
    "partOf": {
      "reference": "Location/12d727ccf5cf9f5398935df96c897d70"
    },
    "physicalType": {
      "coding": [
        {
          "code": "bu",
          "system": "http://terminology.hl7.org/CodeSystem/location-physical-type"
        }
      ]
    },
    "resourceType": "Location"
  },
  {
    "class": {
      "code": "AMB"
    },
    "id": "e36263693e195de8fb6cca16fc35b907",
    "location": [
      {
        "location": {
          "display": "DrSmith, Building1",
          "reference": "Location/3a916820deaca2dd4540e5dd47f26cc8"
        },
        "status": "active"
      }
    ],
    "resourceType": "Encounter",
    "status": "finished",
    "subject": {
      "reference": "Patient/5c570d5b4593dd8da0a1de475f6af32a"
    },
    "type": [
      {
        "coding": [
          {
            "code": "unknown"
          }
        ]
      }
    ]
  },
  {
    "category": [
      "food"
    ],
    "clinicalStatus": {
      "coding": [
        {
          "code": "active",
          "system": "http://terminology.hl7.org/CodeSystem/allergyintolerance-clinical"
        }
      ]
    },
    "code": {
      "coding": [
        {
          "code": "59037007",
          "display": "Drug intolerance (disorder)",
          "system": "SNM3"
        }
      ]
    },
    "id": "4f87bb4d45a38df29af95741b19f9c0b",
    "patient": {
      "reference": "Patient/5c570d5b4593dd8da0a1de475f6af32a"
    },
    "reaction": [
      {
        "manifestation": [
          {
            "text": "Itchy, red, watering eyes"
          }
        ],
        "onset": "2019-10-20T16:01:03+00:00",
        "severity": "moderate"
      }
    ],
    "resourceType": "AllergyIntolerance",
    "type": "allergy"
  },
  {
    "category": [
      "medication"
    ],
    "clinicalStatus": {
      "coding": [
        {
          "code": "active",
          "system": "http://terminology.hl7.org/CodeSystem/allergyintolerance-clinical"
        }
      ]
    },
    "code": {
      "coding": [
        {
          "code": "419199007",
          "display": "Allergy to substance (disorder)",
          "system": "SNM3"
        }
      ]
    },
    "criticality": "high",
    "id": "40db7480eb129ef3df737f784f64e6d5",
    "patient": {
      "reference": "Patient/5c570d5b4593dd8da0a1de475f6af32a"
    },
    "reaction": [
      {
        "manifestation": [
          {
            "text": "Swollen lips"
          }
        ],
        "onset": "2019-06-04T16:01:03+00:00",
        "severity": "severe"
      }
    ],
    "resourceType": "AllergyIntolerance",
    "type": "allergy"
  },
  {
    "category": [
      "medication"
    ],
    "clinicalStatus": {
      "coding": [
        {
          "code": "active",
          "system": "http://terminology.hl7.org/CodeSystem/allergyintolerance-clinical"
        }
      ]
    },
    "code": {
      "coding": [
        {
          "code": "235719002",
          "display": "Food intolerance (disorder)",
          "system": "SNM3"
        }
      ]
    },
    "criticality": "high",
    "id": "c1908b5ef0125c2853c08604e2c90f66",
    "patient": {
      "reference": "Patient/5c570d5b4593dd8da0a1de475f6af32a"
    },
    "reaction": [
      {
        "manifestation": [
          {
            "text": "Cough"
          }
        ],
        "onset": "2020-05-06T16:01:03+00:00",
        "severity": "severe"
      }
    ],
    "resourceType": "AllergyIntolerance",
    "type": "allergy"
  },
  {
    "category": [
      {
        "coding": [
          {
            "code": "laboratory",
            "system": "http://terminology.hl7.org/CodeSystem/observation-category"
          }
        ]
      }
    ],
    "code": {
      "coding": [
        {
          "code": "99199.Z56",
          "display": "Specimen Source"
        }
      ]
    },
    "id": "062912a02c55ad6c7ff04e57709475b6",
    "issued": "2009-08-07T06:05:04.321+00:00",
    "resourceType": "Observation",
    "status": "final",
    "subject": {
      "reference": "Patient/5c570d5b4593dd8da0a1de475f6af32a"
    },
    "valueString": "AOE Value"
  },
  {
    "dosageInstruction": [
      {
        "timing": {
          "repeat": {
            "boundsPeriod": {
              "end": "2017-01-15T13:45:00+00:00",
              "start": "2016-01-15T13:45:00+00:00"
            }
          }
        }
      }
    ],
    "id": "98dd1e23e783b472862f9fd97ca98649",
    "identifier": [
      {
        "type": {
          "coding": [
            {
              "code": "FILL",
              "system": "http://terminology.hl7.org/CodeSystem/v2-0203"
            }
          ]
        },
        "value": "JLC201606061350"
      }
    ],
    "intent": "original-order",
    "medicationCodeableConcept": {
      "text": "unknown"
    },
    "priority": "routine",
    "resourceType": "MedicationRequest",
    "status": "unknown",
    "subject": {
      "reference": "Patient/5c570d5b4593dd8da0a1de475f6af32a"
    }
  },
  {
    "code": {
      "coding": [
        {
          "code": "0006-0740-31",
          "display": "Simvastatin"
        }
      ],
      "text": "simvastatin (ZOCOR) 20 MG PO tablet"
    },
    "id": "8e5c57e544ce383484b8454b703b73d4",
    "resourceType": "Medication"
  },
  {
    "dispenseRequest": {
      "numberOfRepeatsAllowed": 2,
      "quantity": {
        "code": "Tab",
        "system": "unknown",
        "value": 30
      }
    },
    "dosageInstruction": [
      {
        "doseAndRate": [
          {
            "doseRange": {
              "low": {
                "code": "MG",
                "system": "unknown",
                "value": 1
              }
            },
            "type": {
              "coding": [
                {
                  "code": "ordered"
                }
              ]
            }
          }
        ],
        "route": {
          "coding": [
            {
              "code": "PO"
            }
          ]
        }
      }
    ],
    "id": "04cbfb8d420a8bb716c686541c553718",
    "intent": "filler-order",
    "medicationReference": {
      "reference": "Medication/8e5c57e544ce383484b8454b703b73d4"
    },
    "resourceType": "MedicationRequest",
    "status": "unknown",
    "subject": {
      "reference": "Patient/5c570d5b4593dd8da0a1de475f6af32a"
    }
  }
]
