[
  {
    "active": true,
    "id": "0cab94f53a047f8ae9d20eb09d92f238",
    "identifier": [
      {
        "value": "SENDING FAC"
      }
    ],
    "name": "Unknown",
    "resourceType": "Organization"
  },
  {
    "active": true,
    "id": "0d6e3b1bab1aad5862108786dfc9838d",
    "identifier": [
      {
        "value": "RECEIVING FAC"
      }
    ],
    "name": "Unknown",
    "resourceType": "Organization"
  },
  {
    "destination": [
      {
        "endpoint": {
          "extension": [
            {
              "url": "http://hl7.org/fhir/R4/extension-data-absent-reason.html",
              "valueCode": "unknown"
            }
          ]
        },
        "name": "RECEIVING",
        "receiver": {
          "reference": "Organization/0d6e3b1bab1aad5862108786dfc9838d"
        }
      }
    ],
    "eventCoding": {
      "code": "S12",
      "display": "SIU^S12^SIU_S12",
      "system": "http://terminology.hl7.org/CodeSystem/v2-0003"
    },
    "id": "43fb9ff341fb274fd1d4ccd578db2170",
    "meta": {
      "tag": [
        {
          "code": "P",
          "system": "http://terminology.hl7.org/CodeSystem/v2-0103"
        },
        {
          "system": "http://terminology.hl7.org/CodeSystem/v2-0207"
        }
      ]
    },
    "resourceType": "MessageHeader",
    "sender": {
      "reference": "Organization/0cab94f53a047f8ae9d20eb09d92f238"
    },
    "source": {
      "endpoint": {
        "extension": [
          {
            "url": "http://hl7.org/fhir/R4/extension-data-absent-reason.html",
            "valueCode": "unknown"
          }
        ]
      },
      "name": "SENDING APP"
    }
  },
  {
    "active": true,
    "address": [
      {
        "city": "PRIOR LAKE",
        "line": [
          "123 MAIN ST"
        ],
        "postalCode": "22334",
        "state": "MN"
      }
    ],
    "birthDate": "1972-03-24",
    "deceasedBoolean": false,
    "gender": "male",
    "id": "d1d329258b0ab7eeace6ae6e9c907b50",
    "identifier": [
      {
        "system": "unknown",
        "type": {
          "coding": [
            {
              "code": "MRN1",
              "system": "http://terminology.hl7.org/CodeSystem/v2-0203"
            }
          ]
        },
        "value": "556301"
      },
      {
        "system": "http://hl7.org/fhir/sid/us-ssn",
        "type": {
          "coding": [
            {
              "code": "SB",
              "system": "http://terminology.hl7.org/CodeSystem/v2-0203"
            }
          ]
        },
        "value": "333-44-4433"
      }
    ],
    "multipleBirthBoolean": false,
    "name": [
      {
        "family": "WILLIAMS",
        "given": [
          "JACK"
        ]
      }
    ],
    "resourceType": "Patient",
    "telecom": [
      {
        "system": {
          "extension": [
            {
              "url": "http://hl7.org/fhir/StructureDefinition/data-absent-reason",
              "valueCode": "unknown"
            }
          ]
        },
        "use": "home",
        "value": "271-9000"
      }
    ]
  },
  {
    "active": true,
    "id": "0cab94f53a047f8ae9d20eb09d92f238",
    "identifier": [
      {
        "value": "SENDING FAC"
      }
    ],
    "name": "Unknown",
    "resourceType": "Organization"
  },
  {
    "id": "c0d0465c09792b94315f55198d7a9ddd",
    "identifier": [
      {
        "value": "SENDING APP"
      }
    ],
    "patient": {
      "reference": "Patient/d1d329258b0ab7eeace6ae6e9c907b50"
    },
    "resourceType": "Device",
    "type": {
      "coding": [
        {
          "code": "unknown"
        }
      ]
    }
  },
  {
    "id": "a06467c321d563c01fcb752dc3054400",
    "intent": "order",
    "resourceType": "ServiceRequest",
    "status": "unknown",
    "subject": {
      "reference": "Patient/d1d329258b0ab7eeace6ae6e9c907b50"
    }
  },
  {
    "id": "a5f18f3b96323fc12223148637729734",
    "identifier": [
      {
        "system": "unknown",
        "value": "123A"
      }
    ],
    "name": [
      {
        "family": "unknown"
      }
    ],
    "resourceType": "Practitioner"
  },
  {
    "id": "a5f18f3b96323fc12223148637729734",
    "identifier": [
      {
        "system": "unknown",
        "value": "123A"
      }
    ],
    "name": [
      {
        "family": "unknown"
      }
    ],
    "resourceType": "Practitioner"
  },
  {
    "id": "bd2d2d0de7c7b57d2e92db045ed99682",
    "identifier": [
      {
        "system": "unknown",
        "value": "400"
      }
    ],
    "name": [
      {
        "family": "FREDRICKS",
        "given": [
          "TINA"
        ]
      }
    ],
    "resourceType": "Practitioner"
  },
  {
    "basedOn": [
      {
        "reference": "ServiceRequest/a06467c321d563c01fcb752dc3054400"
      }
    ],
    "comment": "These are patient instructions for visit type 001; Fast 24 hours before the appointment; Resource Specific Notes; Appointment notes pertaining to a provider",
    "id": "22dbd0ed8e48deb244ada34df85ae176",
    "identifier": [
      {
        "type": {
          "coding": [
            {
              "code": "PLAC",
              "system": "http://terminology.hl7.org/CodeSystem/v2-0203"
            }
          ]
        },
        "value": "1"
      },
      {
        "type": {
          "coding": [
            {
              "code": "FILL",
              "system": "http://terminology.hl7.org/CodeSystem/v2-0203"
            }
          ]
        },
        "value": "36996"
      }
    ],
    "minutesDuration": 30,
    "participant": [
      {
        "actor": {
          "reference": "Practitioner/a5f18f3b96323fc12223148637729734"
        },
        "status": "accepted"
      },
      {
        "actor": {
          "reference": "Patient/d1d329258b0ab7eeace6ae6e9c907b50"
        },
        "status": "accepted"
      },
      {
        "status": "accepted"
      },
      {
        "period": {
          "end": "1997-05-27T12:00:00Z",
          "start": "1997-05-27T11:45:00Z"
        },
        "status": "accepted",
        "type": [
          {
            "coding": [
              {
                "code": "RESOURCE"
              }
            ]
          }
        ]
      },
      {
        "actor": {
          "reference": "Practitioner/bd2d2d0de7c7b57d2e92db045ed99682"
        },
        "period": {
          "end": "1997-05-27T11:30:00Z",
          "start": "1997-05-27T11:15:00Z"
        },
        "status": "accepted"
      }
    ],
    "resourceType": "Appointment",
    "status": "booked"
  }
]
