[
  {
    "active": true,
    "id": "54b8a85fb6276bb8aa5bc1a4e77588c7",
    "identifier": [
      {
        "value": "DCS"
      }
    ],
    "name": "Unknown",
    "resourceType": "Organization"
  },
  {
    "eventCoding": {
      "code": "V04",
      "display": "VXU^V04^VXU_V04",
      "system": "http://terminology.hl7.org/CodeSystem/v2-0003"
    },
    "id": "34abebc75158f448c0cfaf9c6252d346",
    "meta": {
      "tag": [
        {
          "code": "P",
          "system": "http://terminology.hl7.org/CodeSystem/v2-0103"
        },
        {
          "system": "http://terminology.hl7.org/CodeSystem/v2-0207"
        }
      ]
    },
    "resourceType": "MessageHeader",
    "sender": {
      "reference": "Organization/54b8a85fb6276bb8aa5bc1a4e77588c7"
    },
    "source": {
      "endpoint": {
        "extension": [
          {
            "url": "http://hl7.org/fhir/R4/extension-data-absent-reason.html",
            "valueCode": "unknown"
          }
        ]
      },
      "name": "MYEHR"
    }
  },
  {
    "active": true,
    "id": "689249479b4c434d2aed9bee009c4940",
    "identifier": [
      {
        "value": "dcs"
      }
    ],
    "name": "Unknown",
    "resourceType": "Organization"
  },
  {
    "active": true,
    "address": [
      {
        "city": "Somewhere",
        "line": [
          "123 AnySt"
        ],
        "postalCode": "54000",
        "state": "WI"
      }
    ],
    "birthDate": "2011-04-11",
    "contact": [
      {
        "address": {
          "city": "Somewhere",
          "line": [
            "123 AnySt"
          ],
          "postalCode": "54000",
          "state": "WI"
        },
        "name": {
          "family": "Patient",
          "given": [
            "Sally"
          ],
          "use": "official"
        }
      }
    ],
    "extension": [
      {
        "url": "http://hl7.org/fhir/StructureDefinition/patient-mothersMaidenName",
        "valueString": "Sally Lastname"
      },
      {
        "extension": [
          {
            "url": "text",
            "valueString": "Native American"
          },
          {
            "url": "ombCategory",
            "valueCoding": {
              "code": "1002-5",
              "display": "Native American",
              "system": "HL70005"
            }
          }
        ],
        "url": "http://hl7.org/fhir/us/core/StructureDefinition/us-core-race"
      },
      {
        "extension": [
          {
            "url": "text",
            "valueString": "notHispanic"
          },
          {
            "url": "ombCategory",
            "valueCoding": {
              "code": "2186-5",
              "display": "notHispanic",
              "system": "CDCREC"
            }
          }
        ],
        "url": "http://hl7.org/fhir/us/core/StructureDefinition/us-core-ethnicity"
      }
    ],
    "gender": "male",
    "id": "d3b1aeca704ca5257d4a0de20458c033",
    "identifier": [
      {
        "assigner": {
          "reference": "Organization/689249479b4c434d2aed9bee009c4940"
        },
        "system": "unknown",
        "type": {
          "coding": [
            {
              "code": "MR",
              "system": "http://terminology.hl7.org/CodeSystem/v2-0203"
            }
          ]
        },
        "value": "432155"
      }
    ],
    "multipleBirthBoolean": false,
    "name": [
      {
        "family": "Patient",
        "given": [
          "Johnny",
          "New"
        ],
        "use": "official"
      }
    ],
    "resourceType": "Patient"
  },
  {
    "active": true,
    "id": "54b8a85fb6276bb8aa5bc1a4e77588c7",
    "identifier": [
      {
        "value": "DCS"
      }
    ],
    "name": "Unknown",
    "resourceType": "Organization"
  },
  {
    "id": "28aed21e493f0b76e3c0340b8a94ad93",
    "identifier": [
      {
        "value": "MYEHR"
      }
    ],
    "patient": {
      "reference": "Patient/d3b1aeca704ca5257d4a0de20458c033"
    },
    "resourceType": "Device",
    "type": {
      "coding": [
        {
          "code": "unknown"
        }
      ]
    }
  },
  {
    "address": [
      {
        "city": "Somewhere",
        "line": [
          "123 AnySt"
        ],
        "postalCode": "54000",
        "state": "WI"
      }
    ],
    "id": "3991ade1714535c21380e45cf84f9748",
    "name": [
      {
        "family": "Patient",
        "given": [
          "Sally"
        ],
        "use": "official"
      }
    ],
    "patient": {
      "reference": "Patient/d3b1aeca704ca5257d4a0de20458c033"
    },
    "relationship": [
      {
        "coding": [
          {
            "code": "MTH",
            "display": "mother",
            "system": "http://terminology.hl7.org/CodeSystem/v3-RoleCode",
            "version": "v1"
          },
          {
            "code": "U",
            "display": "Unknown",
            "system": "http://terminology.hl7.org/CodeSystem/v2-0131",
            "version": "v1"
          }
        ]
      }
    ],
    "resourceType": "RelatedPerson"
  },
  {
    "category": [
      {
        "coding": [
          {
            "code": "laboratory",
            "system": "http://terminology.hl7.org/CodeSystem/observation-category"
          }
        ]
      }
    ],
    "code": {
      "coding": [
        {
          "code": "64994-7",
          "display": "EligibilityStatus",
          "system": "LN"
        }
      ]
    },
    "id": "7e7a4a8ac950337e714ae399dc0176f8",
    "issued": "2009-08-07T06:05:04.321+00:00",
    "method": {
      "coding": [
        {
          "code": "VXC40",
          "display": "vaccinelevel",
          "system": "CDCPHINVS"
        }
      ]
    },
    "resourceType": "Observation",
    "status": "final",
    "subject": {
      "reference": "Patient/d3b1aeca704ca5257d4a0de20458c033"
    },
    "valueCodeableConcept": {
      "coding": [
        {
          "code": "V02",
          "display": "Medicaid",
          "system": "HL70064"
        }
      ]
    }
  },
  {
    "category": [
      {
        "coding": [
          {
            "code": "laboratory",
            "system": "http://terminology.hl7.org/CodeSystem/observation-category"
          }
        ]
      }
    ],
    "code": {
      "coding": [
        {
          "code": "29769-7",
          "display": "VIS presented",
          "system": "LN"
        }
      ]
    },
    "id": "d0352353ed6ee18aa15d5678841e3034",
    "issued": "2009-08-07T06:05:04.321+00:00",
    "resourceType": "Observation",
    "status": "final",
    "subject": {
      "reference": "Patient/d3b1aeca704ca5257d4a0de20458c033"
    },
    "valueDateTime": "2012-01-13T00:00:00+00:00"
  },
  {
    "category": [
      {
        "coding": [
          {
            "code": "laboratory",
            "system": "http://terminology.hl7.org/CodeSystem/observation-category"
          }
        ]
      }
    ],
    "code": {
      "coding": [
        {
          "code": "69764-9",
          "display": "Document type",
          "system": "LN"
        }
      ]
    },
    "id": "eb7d4ab4299460d985102c10bc6f80d9",
    "issued": "2009-08-07T06:05:04.321+00:00",
    "resourceType": "Observation",
    "status": "final",
    "subject": {
      "reference": "Patient/d3b1aeca704ca5257d4a0de20458c033"
    },
    "valueCodeableConcept": {
      "coding": [
        {
          "code": "253088698300026411121116",
          "display": "MultivaccineVIS",
          "system": "cdcgs1vis"
        }
      ]
    }
  },
  {
    "category": [
      {
        "coding": [
          {
            "code": "laboratory",
            "system": "http://terminology.hl7.org/CodeSystem/observation-category"
          }
        ]
      }
    ],
    "code": {
      "coding": [
        {
          "code": "64994-7",
          "display": "EligibilityStatus",
          "system": "LN"
        }
      ]
    },
    "id": "7e7a4a8ac950337e714ae399dc0176f8",
    "issued": "2009-08-07T06:05:04.321+00:00",
    "method": {
      "coding": [
        {
          "code": "VXC40",
          "display": "vaccinelevel",
          "system": "CDCPHINVS"
        }
      ]
    },
    "resourceType": "Observation",
    "status": "final",
    "subject": {
      "reference": "Patient/d3b1aeca704ca5257d4a0de20458c033"
    },
    "valueCodeableConcept": {
      "coding": [
        {
          "code": "V02",
          "display": "Medicaid",
          "system": "HL70064"
        }
      ]
    }
  },
  {
    "category": [
      {
        "coding": [
          {
            "code": "laboratory",
            "system": "http://terminology.hl7.org/CodeSystem/observation-category"
          }
        ]
      }
    ],
    "code": {
      "coding": [
        {
          "code": "29769-7",
          "display": "VIS presented",
          "system": "LN"
        }
      ]
    },
    "id": "d0352353ed6ee18aa15d5678841e3034",
    "issued": "2009-08-07T06:05:04.321+00:00",
    "resourceType": "Observation",
    "status": "final",
    "subject": {
      "reference": "Patient/d3b1aeca704ca5257d4a0de20458c033"
    },
    "valueDateTime": "2012-01-13T00:00:00+00:00"
  },
  {
    "category": [
      {
        "coding": [
          {
            "code": "laboratory",
            "system": "http://terminology.hl7.org/CodeSystem/observation-category"
          }
        ]
      }
    ],
    "code": {
      "coding": [
        {
          "code": "69764-9",
          "display": "EligibilityStatus",
          "system": "LN"
        }
      ]
    },
    "id": "8a77453e9410b52b81fd2ee1ac1f8fe2",
    "issued": "2009-08-07T06:05:04.321+00:00",
    "resourceType": "Observation",
    "status": "final",
    "subject": {
      "reference": "Patient/d3b1aeca704ca5257d4a0de20458c033"
    },
    "valueCodeableConcept": {
      "coding": [
        {
          "code": "253088698300026411121116",
          "display": "MultivaccineVIS",
          "system": "cdcgs1vis"
        }
      ]
    }
  },
  {
    "id": "f818c23488dc2651664838d9bd5318df",
    "identifier": [
      {
        "system": "unknown",
        "value": "unknown"
      }
    ],
    "name": [
      {
        "family": "Pediatric",
        "given": [
          "Mary"
        ],
        "suffix": [
          "MD"
        ]
      }
    ],
    "resourceType": "Practitioner"
  },
  {
    "active": true,
    "id": "9ad900d4b42b6567eb41cfb375f5e8e8",
    "name": "Dabig Clinic System",
    "resourceType": "Organization"
  },
  {
    "id": "be2341bb6c8609223e3f581b9d3a22b6",
    "organization": {
      "reference": "Organization/9ad900d4b42b6567eb41cfb375f5e8e8"
    },
    "practitioner": {
      "reference": "Practitioner/f818c23488dc2651664838d9bd5318df"
    },
    "resourceType": "PractitionerRole"
  },
  {
    "id": "f818c23488dc2651664838d9bd5318df",
    "identifier": [
      {
        "system": "unknown",
        "value": "unknown"
      }
    ],
    "name": [
      {
        "family": "Pediatric",
        "given": [
          "Mary"
        ],
        "suffix": [
          "MD"
        ]
      }
    ],
    "resourceType": "Practitioner"
  },
  {
    "active": true,
    "id": "9ad900d4b42b6567eb41cfb375f5e8e8",
    "name": "Dabig Clinic System",
    "resourceType": "Organization"
  },
  {
    "id": "be2341bb6c8609223e3f581b9d3a22b6",
    "organization": {
      "reference": "Organization/9ad900d4b42b6567eb41cfb375f5e8e8"
    },
    "practitioner": {
      "reference": "Practitioner/f818c23488dc2651664838d9bd5318df"
    },
    "resourceType": "PractitionerRole"
  },
  {
    "id": "a241663001cefd49d0524b40aa08137c",
    "identifier": [
      {
        "type": {
          "coding": [
            {
              "code": "FILL",
              "system": "http://terminology.hl7.org/CodeSystem/v2-0203"
            }
          ]
        },
        "value": "65929"
      }
    ],
    "intent": "order",
    "resourceType": "ServiceRequest",
    "status": "unknown",
    "subject": {
      "reference": "Patient/d3b1aeca704ca5257d4a0de20458c033"
    }
  },
  {
    "id": "6232d18b4fa1680c1698cb5e481af8d5",
    "identifier": [
      {
        "type": {
          "coding": [
            {
              "code": "FILL",
              "system": "http://terminology.hl7.org/CodeSystem/v2-0203"
            }
          ]
        },
        "value": "65930"
      }
    ],
    "intent": "order",
    "requester": {
      "reference": "PractitionerRole/be2341bb6c8609223e3f581b9d3a22b6"
    },
    "resourceType": "ServiceRequest",
    "status": "unknown",
    "subject": {
      "reference": "Patient/d3b1aeca704ca5257d4a0de20458c033"
    }
  },
  {
    "id": "7f9e6b11e7044f0b48d142ddbdf88248",
    "identifier": [
      {
        "type": {
          "coding": [
            {
              "code": "FILL",
              "system": "http://terminology.hl7.org/CodeSystem/v2-0203"
            }
          ]
        },
        "value": "65949"
      }
    ],
    "intent": "order",
    "requester": {
      "reference": "PractitionerRole/be2341bb6c8609223e3f581b9d3a22b6"
    },
    "resourceType": "ServiceRequest",
    "status": "unknown",
    "subject": {
      "reference": "Patient/d3b1aeca704ca5257d4a0de20458c033"
    }
  },
  {
    "id": "f818c23488dc2651664838d9bd5318df",
    "identifier": [
      {
        "system": "unknown",
        "value": "unknown"
      }
    ],
    "name": [
      {
        "family": "Pediatric",
        "given": [
          "Mary"
        ],
        "suffix": [
          "MD"
        ]
      }
    ],
    "resourceType": "Practitioner"
  },
  {
    "id": "56bf9dc46ce553234660aca0f33bd59f",
    "identifier": [
      {
        "system": "unknown",
        "value": "unknown"
      }
    ],
    "name": [
      {
        "family": "Sticker",
        "given": [
          "Nurse"
        ],
        "suffix": [
          "RN"
        ]
      }
    ],
    "resourceType": "Practitioner"
  },
  {
    "id": "1181f4a1538686cc05f75f919545ab92",
    "identifier": [
      {
        "system": "http://terminology.hl7.org/CodeSystem/v2-0227",
        "value": "SKB"
      }
    ],
    "name": "GlaxoSmithKline",
    "resourceType": "Organization"
  },
  {
    "id": "f818c23488dc2651664838d9bd5318df",
    "identifier": [
      {
        "system": "unknown",
        "value": "unknown"
      }
    ],
    "name": [
      {
        "family": "Pediatric",
        "given": [
          "Mary"
        ],
        "suffix": [
          "MD"
        ]
      }
    ],
    "resourceType": "Practitioner"
  },
  {
    "id": "56bf9dc46ce553234660aca0f33bd59f",
    "identifier": [
      {
        "system": "unknown",
        "value": "unknown"
      }
    ],
    "name": [
      {
        "family": "Sticker",
        "given": [
          "Nurse"
        ],
        "suffix": [
          "RN"
        ]
      }
    ],
    "resourceType": "Practitioner"
  },
  {
    "id": "70d9e58fd96d5e69612b76d939ff0ee7",
    "identifier": [
      {
        "system": "http://terminology.hl7.org/CodeSystem/v2-0227",
        "value": "PMC"
      }
    ],
    "name": "sanofi",
    "resourceType": "Organization"
  },
  {
    "doseQuantity": {
      "value": 999
    },
    "id": "44d6410a48a7d47ba11ef54308926ba9",
    "identifier": [
      {
        "type": {
          "coding": [
            {
              "code": "FILL",
              "system": "http://terminology.hl7.org/CodeSystem/v2-0203"
            }
          ]
        },
        "value": "65929"
      }
    ],
    "occurrenceDateTime": "2011-04-15T00:00:00+00:00",
    "patient": {
      "reference": "Patient/d3b1aeca704ca5257d4a0de20458c033"
    },
    "resourceType": "Immunization",
    "status": "completed",
    "vaccineCode": {
      "coding": [
        {
          "code": "85",
          "display": "hep B,unspec",
          "system": "CVX"
        }
      ]
    }
  },
  {
    "doseQuantity": {
      "code": "mL",
      "system": "UCUM",
      "unit": "mL",
      "value": 0.5
    },
    "expirationDate": "2014-12-12",
    "id": "eab48e3e5573ff50d644d1a1cafbb4cb",
    "identifier": [
      {
        "type": {
          "coding": [
            {
              "code": "FILL",
              "system": "http://terminology.hl7.org/CodeSystem/v2-0203"
            }
          ]
        },
        "value": "65930"
      }
    ],
    "lotNumber": "xy3939",
    "manufacturer": {
      "reference": "Organization/1181f4a1538686cc05f75f919545ab92"
    },
    "occurrenceDateTime": "2012-01-13T00:00:00+00:00",
    "patient": {
      "reference": "Patient/d3b1aeca704ca5257d4a0de20458c033"
    },
    "performer": [
      {
        "actor": {
          "reference": "Practitioner/f818c23488dc2651664838d9bd5318df"
        },
        "function": {
          "coding": [
            {
              "code": "OP",
              "system": "http://terminology.hl7.org/CodeSystem/v2-0443"
            }
          ]
        }
      },
      {
        "actor": {
          "reference": "Practitioner/56bf9dc46ce553234660aca0f33bd59f"
        },
        "function": {
          "coding": [
            {
              "code": "AP",
              "system": "http://terminology.hl7.org/CodeSystem/v2-0443"
            }
          ]
        }
      }
    ],
    "recorded": "2012-01-13T00:00:00+00:00",
    "resourceType": "Immunization",
    "route": [
      {
        "coding": [
          {
            "code": "C28161",
            "display": "IM",
            "system": "NCIT"
          },
          {
            "code": "IM",
            "system": "HL70162"
          }
        ]
      }
    ],
    "site": [
      {
        "coding": [
          {
            "code": "RT",
            "display": "Right Thigh",
            "system": "HL70163"
          }
        ]
      }
    ],
    "status": "completed",
    "vaccineCode": {
      "coding": [
        {
          "code": "110",
          "display": "DTaP HIB IPV",
          "system": "CVX"
        }
      ]
    }
  },
  {
    "doseQuantity": {
      "code": "mL",
      "system": "UCUM",
      "unit": "mL",
      "value": 0.5
    },
    "expirationDate": "2013-03-09",
    "id": "c9d67c5c396c1a673c2490ade3e64c9a",
    "identifier": [
      {
        "type": {
          "coding": [
            {
              "code": "FILL",
              "system": "http://terminology.hl7.org/CodeSystem/v2-0203"
            }
          ]
        },
        "value": "65949"
      }
    ],
    "lotNumber": "32k2a",
    "manufacturer": {
      "reference": "Organization/70d9e58fd96d5e69612b76d939ff0ee7"
    },
    "occurrenceDateTime": "2012-01-13T00:00:00+00:00",
    "patient": {
      "reference": "Patient/d3b1aeca704ca5257d4a0de20458c033"
    },
    "performer": [
      {
        "actor": {
          "reference": "Practitioner/f818c23488dc2651664838d9bd5318df"
        },
        "function": {
          "coding": [
            {
              "code": "OP",
              "system": "http://terminology.hl7.org/CodeSystem/v2-0443"
            }
          ]
        }
      },
      {
        "actor": {
          "reference": "Practitioner/56bf9dc46ce553234660aca0f33bd59f"
        },
        "function": {
          "coding": [
            {
              "code": "AP",
              "system": "http://terminology.hl7.org/CodeSystem/v2-0443"
            }
          ]
        }
      }
    ],
    "recorded": "2012-01-13T00:00:00+00:00",
    "resourceType": "Immunization",
    "route": [
      {
        "coding": [
          {
            "code": "C28161",
            "display": "IM",
            "system": "NCIT"
          },
          {
            "code": "IM",
            "system": "HL70162"
          }
        ]
      }
    ],
    "site": [
      {
        "coding": [
          {
            "code": "LT",
            "display": "left Thigh",
            "system": "HL70163"
          }
        ]
      }
    ],
    "status": "completed",
    "vaccineCode": {
      "coding": [
        {
          "code": "48",
          "display": "HIB PRP-T",
          "system": "CVX"
        }
      ]
    }
  }
]
