{
  "entry": [
    {
      "request": {
        "method": "PUT",
        "url": "Organization/626bf3d3-99de-4dcf-9d43-2d08c73f2ae5"
      },
      "resource": {
        "id": "626bf3d3-99de-4dcf-9d43-2d08c73f2ae5",
        "identifier": [
          {
            "value": "TISCH"
          }
        ],
        "resourceType": "Organization"
      }
    },
    {
      "request": {
        "method": "PUT",
        "url": "Organization/7ad74f03-69ab-4a4d-b47e-ef695039d7ff"
      },
      "resource": {
        "id": "7ad74f03-69ab-4a4d-b47e-ef695039d7ff",
        "identifier": [
          {
            "value": "TISCH"
          }
        ],
        "resourceType": "Organization"
      }
    },
    {
      "request": {
        "method": "PUT",
        "url": "MessageHeader/f2e261fb-9073-4beb-94a2-9b59267d0b23"
      },
      "resource": {
        "destination": [
          {
            "endpoint": "unknown",
            "name": "SPM",
            "receiver": {
              "reference": "Organization/7ad74f03-69ab-4a4d-b47e-ef695039d7ff"
            }
          }
        ],
        "eventCoding": {
          "code": "S12",
          "display": "SIU^S12^",
          "system": "http://terminology.hl7.org/CodeSystem/v2-0003"
        },
        "id": "f2e261fb-9073-4beb-94a2-9b59267d0b23",
        "meta": {
          "security": [
            {
              "code": "HAND02"
            }
          ],
          "tag": [
            {
              "code": "T",
              "system": "http://terminology.hl7.org/CodeSystem/v2-0103"
            },
            {
              "system": "http://terminology.hl7.org/CodeSystem/v2-0207"
            }
          ]
        },
        "resourceType": "MessageHeader",
        "sender": {
          "reference": "Organization/626bf3d3-99de-4dcf-9d43-2d08c73f2ae5"
        },
        "source": {
          "endpoint": "unknown",
          "name": "OR_CASE_SCHEDULE"
        }
      }
    },
    {
      "request": {
        "method": "PUT",
        "url": "Device/67bd4471-32a1-41d9-a976-3d9a45e79e07"
      },
      "resource": {
        "id": "67bd4471-32a1-41d9-a976-3d9a45e79e07",
        "identifier": [
          {
            "value": "OR_CASE_SCHEDULE"
          }
        ],
        "resourceType": "Device"
      }
    },
    {
      "request": {
        "method": "PUT",
        "url": "Provenance/b5e8a217-642b-4622-b2a6-f2463340550c"
      },
      "resource": {
        "agent": [
          {
            "who": {
              "reference": "Device/67bd4471-32a1-41d9-a976-3d9a45e79e07"
            }
          }
        ],
        "id": "b5e8a217-642b-4622-b2a6-f2463340550c",
        "recorded": "2022-04-29T10:51:50.294429Z",
        "resourceType": "Provenance",
        "target": [
          {
            "reference": "MessageHeader/f2e261fb-9073-4beb-94a2-9b59267d0b23"
          }
        ]
      }
    },
    {
      "request": {
        "method": "PUT",
        "url": "Device/7584de50-6715-4be6-85e9-a979da7d7d6a"
      },
      "resource": {
        "id": "7584de50-6715-4be6-85e9-a979da7d7d6a",
        "identifier": [
          {
            "value": "OR_CASE_SCHEDULE"
          }
        ],
        "resourceType": "Device"
      }
    },
    {
      "request": {
        "method": "PUT",
        "url": "Organization/79b85898-e5b7-45aa-994c-d35f495e344b"
      },
      "resource": {
        "id": "79b85898-e5b7-45aa-994c-d35f495e344b",
        "identifier": [
          {
            "value": "TISCH"
          }
        ],
        "resourceType": "Organization"
      }
    },
    {
      "request": {
        "method": "PUT",
        "url": "Practitioner/ec939d46-27fb-46d0-b34f-b775bd38e1dc"
      },
      "resource": {
        "id": "ec939d46-27fb-46d0-b34f-b775bd38e1dc",
        "identifier": [
          {
            "type": {
              "coding": [
                {
                  "code": "KID"
                }
              ]
            },
            "value": "SLATEJ01"
          }
        ],
        "name": [
          {
            "family": "SLATER",
            "given": [
              "JAMES"
            ]
          }
        ],
        "resourceType": "Practitioner"
      }
    },
    {
      "request": {
        "method": "PUT",
        "url": "Encounter/d0972412-5968-4dff-b02a-4a197bd18b2c"
      },
      "resource": {
        "class": {
          "code": "AMB",
          "display": "ambulatory",
          "system": "http://terminology.hl7.org/CodeSystem/v3-ActCode",
          "version": "v1"
        },
        "id": "d0972412-5968-4dff-b02a-4a197bd18b2c",
        "identifier": [
          {
            "type": {
              "coding": [
                {
                  "code": "VN",
                  "system": "http://terminology.hl7.org/CodeSystem/v2-0203"
                }
              ],
              "text": "visit number"
            },
            "value": "496905630"
          },
          {
            "value": "496905632"
          }
        ],
        "participant": [
          {
            "individual": {
              "reference": "Practitioner/ec939d46-27fb-46d0-b34f-b775bd38e1dc"
            },
            "type": [
              {
                "coding": [
                  {
                    "code": "ADM",
                    "display": "admitter",
                    "system": "http://terminology.hl7.org/CodeSystem/v3-ParticipationType"
                  }
                ]
              }
            ]
          }
        ],
        "resourceType": "Encounter",
        "status": "in-progress",
        "subject": {
          "reference": "Patient/56b4a8a9-9176-4f62-9c5f-3aa57cfc2a64"
        }
      }
    },
    {
      "request": {
        "method": "PUT",
        "url": "Practitioner/2ea250c2-711c-46e5-89b0-54a8ae5910d5"
      },
      "resource": {
        "id": "2ea250c2-711c-46e5-89b0-54a8ae5910d5",
        "name": [
          {
            "family": "TH CATH LAB 1",
            "given": [
              {
                "1": "11801"
              }
            ]
          }
        ],
        "resourceType": "Practitioner"
      }
    },
    {
      "request": {
        "method": "PUT",
        "url": "Patient/56b4a8a9-9176-4f62-9c5f-3aa57cfc2a64"
      },
      "resource": {
        "active": true,
        "address": [
          {
            "city": "NEW YORK",
            "country": "US",
            "line": [
              "1 PARK AVE"
            ],
            "postalCode": "10016",
            "state": "NY"
          },
          {
            "district": "60"
          }
        ],
        "birthDate": "1983-11-30",
        "deceasedBoolean": false,
        "gender": "male",
        "id": "56b4a8a9-9176-4f62-9c5f-3aa57cfc2a64",
        "identifier": [
          {
            "type": {
              "coding": [
                {
                  "code": "MRN"
                }
              ]
            },
            "value": "10064618"
          },
          {
            "system": "http://hl7.org/fhir/sid/us-ssn",
            "type": {
              "coding": [
                {
                  "code": "SB",
                  "system": "http://terminology.hl7.org/CodeSystem/v2-0203"
                }
              ]
            },
            "value": "345-85-6885"
          },
          {
            "type": {
              "coding": [
                {
                  "code": "DL",
                  "system": "http://terminology.hl7.org/CodeSystem/v2-0203"
                }
              ]
            }
          }
        ],
        "maritalStatus": {
          "coding": [
            {
              "code": "U"
            }
          ]
        },
        "multipleBirthBoolean": false,
        "name": [
          {
            "family": "CUPID",
            "given": [
              "CATHTHREE"
            ]
          }
        ],
        "resourceType": "Patient",
        "telecom": [
          {
            "system": "phone",
            "use": "home",
            "value": "(234)656-8904"
          }
        ]
      }
    },
    {
      "request": {
        "method": "PUT",
        "url": "Appointment/0c375453-6e19-4019-8be2-3755a0cb1ab5"
      },
      "resource": {
        "id": "0c375453-6e19-4019-8be2-3755a0cb1ab5",
        "participant": [
          {
            "individual": {
              "reference": "Practitioner/2ea250c2-711c-46e5-89b0-54a8ae5910d5"
            },
            "type": [
              {
                "coding": [
                  {
                    "code": "LOC",
                    "display": "location",
                    "system": "http://terminology.hl7.org/CodeSystem/v3-ParticipationType"
                  }
                ]
              }
            ]
          }
        ],
        "period": {
          "start": "2022-04-29T11:10:00+04:00"
        },
        "resourceType": "Appointment",
        "serviceType": "1180936",
        "start": "2022-04-29",
        "status": "Sch"
      }
    },
    {
      "request": {
        "method": "PUT",
        "url": "Provenance/f6733c76-3662-4288-8bfa-fa85292ed43e"
      },
      "resource": {
        "agent": [
          {
            "type": {
              "coding": [
                {
                  "code": "assembler",
                  "system": "http://terminology.hl7.org/CodeSystem/provenance-participant-type"
                }
              ]
            },
            "who": {
              "reference": "Device/7584de50-6715-4be6-85e9-a979da7d7d6a"
            }
          },
          {
            "type": {
              "coding": [
                {
                  "code": "author",
                  "system": "http://terminology.hl7.org/CodeSystem/provenance-participant-type"
                }
              ]
            },
            "who": {
              "reference": "Organization/79b85898-e5b7-45aa-994c-d35f495e344b"
            }
          }
        ],
        "id": "f6733c76-3662-4288-8bfa-fa85292ed43e",
        "recorded": "2022-04-29T10:51:50.294429Z",
        "resourceType": "Provenance",
        "target": [
          {
            "reference": "Organization/626bf3d3-99de-4dcf-9d43-2d08c73f2ae5"
          },
          {
            "reference": "Organization/7ad74f03-69ab-4a4d-b47e-ef695039d7ff"
          },
          {
            "reference": "MessageHeader/f2e261fb-9073-4beb-94a2-9b59267d0b23"
          },
          {
            "reference": "Device/67bd4471-32a1-41d9-a976-3d9a45e79e07"
          },
          {
            "reference": "Provenance/b5e8a217-642b-4622-b2a6-f2463340550c"
          },
          {
            "reference": "Device/7584de50-6715-4be6-85e9-a979da7d7d6a"
          },
          {
            "reference": "Organization/79b85898-e5b7-45aa-994c-d35f495e344b"
          },
          {
            "reference": "Practitioner/ec939d46-27fb-46d0-b34f-b775bd38e1dc"
          },
          {
            "reference": "Encounter/d0972412-5968-4dff-b02a-4a197bd18b2c"
          },
          {
            "reference": "Practitioner/2ea250c2-711c-46e5-89b0-54a8ae5910d5"
          },
          {
            "reference": "Patient/56b4a8a9-9176-4f62-9c5f-3aa57cfc2a64"
          },
          {
            "reference": "Appointment/0c375453-6e19-4019-8be2-3755a0cb1ab5"
          }
        ]
      }
    }
  ],
  "identifier": {
    "value": "8356"
  },
  "resourceType": "Bundle",
  "timestamp": "2022-04-29T10:51:50.294429Z",
  "type": "transaction"
}