[
  {
    "active": true,
    "id": "ffffffff-9e5d-1176-ffff-ffffb3b88942",
    "identifier": [
      {
        "value": "GOOD HEALTH HOSPITAL"
      }
    ],
    "name": "Unknown",
    "resourceType": "Organization"
  },
  {
    "id": "ffffffff-9f83-48fd-0000-00003faffa1a",
    "identifier": [
      {
        "value": "ADT1"
      }
    ],
    "resourceType": "Device",
    "type": {
      "coding": [
        {
          "code": "unknown"
        }
      ]
    }
  },
  {
    "activity": {
      "coding": [
        {
          "code": "message - ADT^A01^ADT_A01"
        }
      ]
    },
    "agent": [
      {
        "type": {
          "coding": [
            {
              "code": "author",
              "system": "http://terminology.hl7.org/CodeSystem/provenance-participant-type"
            }
          ]
        },
        "who": {
          "reference": "Organization/ffffffff-9e5d-1176-ffff-ffffb3b88942"
        }
      }
    ],
    "entity": [
      {
        "role": "source",
        "what": {
          "reference": "Device/ffffffff-9f83-48fd-0000-00003faffa1a"
        }
      }
    ],
    "recorded": "1988-08-18T11:26:00.000+00:00",
    "resourceType": "Provenance"
  }
]
