[
  {
    "id": "92ad1d98636c99543b0621070990e727",
    "mode": "instance",
    "name": "GOOD HEALTH HOSPITAL",
    "physicalType": {
      "coding": [
        {
          "code": "si",
          "system": "http://terminology.hl7.org/CodeSystem/location-physical-type"
        }
      ]
    },
    "resourceType": "Location"
  },
  {
    "id": "387e3bb6d8c7111fca43b93cdbd1de00",
    "mode": "instance",
    "name": "1956 ADDITION",
    "partOf": {
      "reference": "Location/92ad1d98636c99543b0621070990e727"
    },
    "physicalType": {
      "coding": [
        {
          "code": "bu",
          "system": "http://terminology.hl7.org/CodeSystem/location-physical-type"
        }
      ]
    },
    "resourceType": "Location"
  },
  {
    "id": "6eb4ccd30ddc07c6f90a6ae7cdcc7c30",
    "mode": "instance",
    "name": "12",
    "partOf": {
      "reference": "Location/387e3bb6d8c7111fca43b93cdbd1de00"
    },
    "physicalType": {
      "coding": [
        {
          "code": "lvl",
          "system": "http://terminology.hl7.org/CodeSystem/location-physical-type"
        }
      ]
    },
    "resourceType": "Location"
  },
  {
    "id": "c352edbeeedbaf3a9cf6b64fadf06402",
    "mode": "instance",
    "name": "12NORTH",
    "partOf": {
      "reference": "Location/387e3bb6d8c7111fca43b93cdbd1de00"
    },
    "physicalType": {
      "coding": [
        {
          "code": "si",
          "system": "http://terminology.hl7.org/CodeSystem/location-physical-type"
        }
      ]
    },
    "resourceType": "Location"
  },
  {
    "id": "58b9acb34efee360ead7280fde16eac3",
    "mode": "instance",
    "name": "1211",
    "partOf": {
      "reference": "Location/c352edbeeedbaf3a9cf6b64fadf06402"
    },
    "physicalType": {
      "coding": [
        {
          "code": "ro",
          "system": "http://terminology.hl7.org/CodeSystem/location-physical-type"
        }
      ]
    },
    "resourceType": "Location"
  },
  {
    "id": "d14cec1ab129f503157a067f8915ff7a",
    "mode": "instance",
    "name": "A",
    "partOf": {
      "reference": "Location/58b9acb34efee360ead7280fde16eac3"
    },
    "physicalType": {
      "coding": [
        {
          "code": "bd",
          "system": "http://terminology.hl7.org/CodeSystem/location-physical-type"
        }
      ]
    },
    "resourceType": "Location"
  },
  {
    "location": {
      "display": "GOOD HEALTH HOSPITAL, 1956 ADDITION, 12, 12NORTH, 1211, A",
      "reference": "Location/d14cec1ab129f503157a067f8915ff7a"
    },
    "status": "active"
  }
]
